source_row,subject,trial,condition,atypical,exemplar,category_left,category_right,category_correct,response,response_time_ms,rt_s,target_side,raw_points,horizontal_scale_px,vertical_scale_px,auc,max_deviation,motor_rmse,rho_hat,action_rmse,target_action,competitor_action,action_gap
1,1,2,Typical,0,Loewe,Fisch,Saeugetier,Saeugetier,Saeugetier,1000.0,1.0,1,101,609.0,831.0,0.17769406613219998,0.6936849970653532,0.4251932501401103,0.3,0.41656796617235153,-0.0755292673810717,-0.1469108260209128,-0.0713815586398411
2,1,3,Typical,0,Kaninchen,Reptil,Saeugetier,Saeugetier,Saeugetier,1387.0,1.387,1,140,615.0,780.0,0.003409214092140902,0.3871834644813007,0.23043881006044553,0.0,0.23043881006044553,0.0,0.0,0.0
3,1,4,Atypical,1,Seeloewe,Saeugetier,Fisch,Saeugetier,Saeugetier,2211.0,2.211,-1,220,577.0,861.0,0.08186495395385189,0.38574226254974,0.1994689049852747,0.15,0.1953884922801976,-0.036339217857283786,-0.07155591092799143,-0.03521669307070765
4,1,5,Typical,0,Alligator,Saeugetier,Reptil,Reptil,Reptil,1606.0,1.606,1,162,547.0,826.0,0.1286790694339893,0.6386843144424128,0.3777428064753779,0.15,0.3750102459835958,-0.036339217857283786,-0.07155591092799143,-0.03521669307070765
5,1,6,Atypical,1,Pinguin,Fisch,Vogel,Vogel,Vogel,2230.0,2.23,1,224,727.0,755.0,-0.017743614639803663,0.7037370379620357,0.38587312022203635,0.3,0.3750144907252359,-0.0755292673810717,-0.1469108260209128,-0.0713815586398411
6,1,7,Typical,0,Katze,Reptil,Saeugetier,Saeugetier,Saeugetier,1219.0,1.219,1,123,655.0,769.0,0.2943200119742553,1.0690157255328239,0.5035542535107294,0.65,0.45357020850787905,-0.18104253713442486,-0.33667875115684626,-0.1556362140224214
7,1,8,Typical,0,Spatz,Vogel,Saeugetier,Vogel,Vogel,1311.0,1.311,-1,133,532.0,858.0,0.4351789768538994,1.828520577395489,0.7398298444048166,1.05,0.6297032492947832,-0.33253106914623176,-0.5739500230282262,-0.2414189538819944
8,1,9,Typical,0,Chamaeleon,Reptil,Insekt,Reptil,Reptil,1566.0,1.566,-1,158,623.0,818.0,0.010673087212413016,0.37443729266645254,0.270449298411074,0.15,0.267741838750444,-0.036339217857283786,-0.07155591092799143,-0.03521669307070765
9,1,10,Typical,0,Pferd,Vogel,Saeugetier,Saeugetier,Saeugetier,1030.0,1.03,1,104,653.0,848.0,0.14624448247905586,0.616710076569678,0.39075682542413837,0.2,0.3855296491051321,-0.04906328648132368,-0.09625719147880524,-0.04719390499748156
10,1,11,Atypical,1,Schmetterling,Vogel,Insekt,Insekt,Insekt,1943.0,1.943,1,193,606.0,774.0,0.05930634828188701,0.4939347398125413,0.2820716180405565,0.05,0.281722044266837,-0.011823423130533217,-0.023424189735792297,-0.01160076660525908
11,1,12,Typical,0,Hai,Fisch,Saeugetier,Fisch,Fisch,4142.0,4.142,-1,413,593.0,844.0,-0.23223066494726055,0.10204929353389544,0.5318734871284293,0.0,0.5318734871284293,0.0,0.0,0.0
13,1,14,Typical,0,Falke,Reptil,Vogel,Vogel,Vogel,1387.0,1.387,1,140,676.0,909.0,0.11313945933402941,0.516122382693491,0.34983424123993456,0.15,0.34654339654450766,-0.036339217857283786,-0.07155591092799143,-0.03521669307070765
14,1,15,Atypical,1,Wal,Fisch,Saeugetier,Saeugetier,Saeugetier,1014.0,1.014,1,103,596.0,802.0,0.17696907487827346,0.6671237583892613,0.39759403704514606,0.3,0.3858079128678261,-0.0755292673810717,-0.1469108260209128,-0.0713815586398411
15,1,16,Atypical,1,Fledermaus,Saeugetier,Vogel,Saeugetier,Saeugetier,2381.0,2.381,-1,237,573.0,757.0,-0.038687130000342206,0.34903946659965085,0.27898200639889004,0.0,0.27898200639889004,0.0,0.0,0.0
16,1,17,Typical,0,Lachs,Fisch,Saeugetier,Fisch,Fisch,1086.0,1.086,-1,107,653.0,824.0,0.14711431402576342,0.6474596607999998,0.37645054140747164,0.35,0.3616998861376966,-0.0893166669454969,-0.17286009793038884,-0.08354343098489193
17,1,18,Typical,0,Goldfisch,Fisch,Amphibie,Fisch,Fisch,1546.0,1.546,-1,154,659.0,892.0,0.21975804100092236,0.6954814672995446,0.4291567534767105,0.45,0.41186844437928966,-0.11807367971552495,-0.22595127751594768,-0.10787759780042273
18,1,19,Typical,0,Hund,Insekt,Saeugetier,Saeugetier,Saeugetier,1044.0,1.044,1,106,546.0,855.0,0.08777217553688142,0.5094058891252748,0.30448252187118563,0.15,0.30249451730498045,-0.036339217857283786,-0.07155591092799143,-0.03521669307070765
19,2,1,Typical,0,Katze,Saeugetier,Reptil,Saeugetier,Saeugetier,1328.0,1.328,-1,134,555.0,808.0,0.06472708002119767,0.4110193531387388,0.22905453133516926,0.15,0.22422363309370413,-0.036339217857283786,-0.07155591092799143,-0.03521669307070765
20,2,2,Atypical,1,Pinguin,Vogel,Fisch,Vogel,Vogel,1344.0,1.344,-1,136,589.0,829.0,0.30903199174406604,0.8630815930023776,0.6204899392870894,0.45,0.6044559272969307,-0.11807367971552495,-0.22595127751594768,-0.10787759780042273
21,2,3,Atypical,1,Schmetterling,Insekt,Vogel,Insekt,Insekt,1351.0,1.351,-1,137,710.0,883.0,0.46088406517536595,1.7509606299042257,0.7728150949443015,1.0,0.692934507452643,-0.31160384054626533,-0.5432804372021593,-0.23167659665589402
22,2,4,Typical,0,Spatz,Saeugetier,Vogel,Vogel,Vogel,1199.0,1.199,1,121,546.0,800.0,0.19415707821590172,0.663805421245421,0.401238842897705,0.3,0.3902917272472344,-0.0755292673810717,-0.1469108260209128,-0.0713815586398411
23,2,5,Typical,0,Falke,Vogel,Reptil,Vogel,Vogel,1768.0,1.768,-1,179,608.0,805.0,0.16323426212590297,1.248723177094737,0.44194125124217337,0.6,0.392639176201892,-0.16457458950838247,-0.30845571585668585,-0.14388112634830338
24,2,6,Atypical,1,Aal,Reptil,Fisch,Fisch,Fisch,1183.0,1.183,1,120,671.0,947.0,0.2714136349025452,0.8369199999999997,0.5615141306221467,0.45,0.5465536144794381,-0.11807367971552495,-0.22595127751594768,-0.10787759780042273
25,2,7,Typical,0,Hund,Saeugetier,Insekt,Saeugetier,Saeugetier,800.0,0.8,-1,82,753.0,944.0,0.23234903523162245,0.7188238099378494,0.4922706131284316,0.35,0.47921613088141873,-0.0893166669454969,-0.17286009793038884,-0.08354343098489193
26,2,8,Typical,0,Klapperschlange,Reptil,Amphibie,Reptil,Reptil,1288.0,1.288,-1,129,682.0,834.0,0.12269610718187565,0.5967267183859235,0.334040777415092,0.25,0.32677728406458245,-0.06212157856216344,-0.12137670396361751,-0.05925512540145407
27,2,9,Atypical,1,Fledermaus,Saeugetier,Vogel,Saeugetier,Saeugetier,1336.0,1.336,-1,135,634.0,790.0,0.1537128718995484,0.6794685173501573,0.4036032697163802,0.25,0.39686453595012605,-0.06212157856216344,-0.12137670396361751,-0.05925512540145407
28,2,10,Typical,0,Goldfisch,Amphibie,Fisch,Fisch,Fisch,1111.0,1.111,1,113,635.0,859.0,0.0937280839895013,0.5313812790425197,0.2935903532300782,0.15,0.29138208859255393,-0.036339217857283786,-0.07155591092799143,-0.03521669307070765
29,2,11,Typical,0,Loewe,Saeugetier,Fisch,Saeugetier,Saeugetier,1144.0,1.144,-1,116,604.0,884.0,0.274248279444228,0.8309879407894044,0.5623073457033017,0.45,0.546585736428637,-0.11807367971552495,-0.22595127751594768,-0.10787759780042273
30,2,12,Typical,0,Hai,Fisch,Saeugetier,Fisch,Fisch,1320.0,1.32,-1,134,731.0,895.0,0.33293688474021615,0.9229396818123109,0.656315072475735,0.5,0.6389135734557332,-0.13311286845349898,-0.25307847472559275,-0.11996560627209377
31,2,13,Typical,0,Kaninchen,Saeugetier,Reptil,Saeugetier,Saeugetier,1103.0,1.103,-1,112,679.0,828.0,0.28435727280602957,0.9226490132547861,0.5475529748699256,0.5,0.5256821675236468,-0.13311286845349898,-0.25307847472559275,-0.11996560627209377
32,2,14,Typical,0,Lachs,Fisch,Saeugetier,Fisch,Fisch,1240.0,1.24,-1,126,604.0,834.0,0.20141929619529925,0.7469041124874171,0.4636244164850004,0.35,0.452342363782924,-0.0893166669454969,-0.17286009793038884,-0.08354343098489193
33,2,15,Typical,0,Pferd,Saeugetier,Vogel,Saeugetier,Saeugetier,817.0,0.817,-1,83,649.0,923.0,0.15457838605395932,0.6073425575642526,0.35382744285179535,0.3,0.3436990552819106,-0.0755292673810717,-0.1469108260209128,-0.0713815586398411
34,2,16,Atypical,1,Wal,Fisch,Saeugetier,Saeugetier,Saeugetier,1488.0,1.488,1,150,533.0,847.0,0.48010138689622167,2.0253742589118193,0.9027159564760899,1.65,0.6916381926696724,-0.6239433191380308,-0.9594981203111543,-0.33555480117312353
35,2,17,Typical,0,Chamaeleon,Insekt,Reptil,Reptil,Reptil,1579.0,1.579,1,159,603.0,905.0,0.2314280232822814,0.8110659369817573,0.5212198170593049,0.35,0.5107969305340094,-0.0893166669454969,-0.17286009793038884,-0.08354343098489193
36,2,18,Atypical,1,Seeloewe,Fisch,Saeugetier,Saeugetier,Saeugetier,3056.0,3.056,1,307,609.0,872.0,0.10769297144145015,0.8089637502949089,0.6658283158874075,0.1,0.6657084090162558,-0.023931874853317565,-0.04727665738328592,-0.023344782529968352
37,2,19,Typical,0,Alligator,Reptil,Saeugetier,Reptil,Reptil,1384.0,1.384,-1,140,625.0,884.0,0.20637226666666664,0.7519699456,0.4722535354068865,0.3,0.4624322346550931,-0.0755292673810717,-0.1469108260209128,-0.0713815586398411
38,3,1,Typical,0,Spatz,Saeugetier,Vogel,Vogel,Vogel,1616.0,1.616,1,163,776.0,931.0,0.34689993935718616,1.298702694663918,0.6085182738496813,0.85,0.5370364089974936,-0.2522504086137768,-0.4529166841723562,-0.2006662755585794
39,3,2,Typical,0,Hund,Insekt,Saeugetier,Saeugetier,Saeugetier,1319.0,1.319,1,133,738.0,869.0,0.1747091237579042,0.6589943940509486,0.4125226519587167,0.3,0.40232733596281384,-0.0755292673810717,-0.1469108260209128,-0.0713815586398411
40,3,3,Atypical,1,Wal,Fisch,Saeugetier,Saeugetier,Saeugetier,1920.0,1.92,1,194,657.0,885.0,0.2611137971170203,1.4046352842228313,0.5321546128782755,0.6,0.4950076275243906,-0.16457458950838247,-0.30845571585668585,-0.14388112634830338
41,3,4,Typical,0,Pferd,Saeugetier,Vogel,Saeugetier,Saeugetier,1385.0,1.385,-1,140,550.0,806.0,0.1898467023172905,0.7181963636363632,0.41154819368247636,0.4,0.39384983654113354,-0.10349599838173126,-0.1992018401254721,-0.09570584174374083
42,3,5,Atypical,1,Schmetterling,Vogel,Insekt,Insekt,Insekt,1559.0,1.559,1,157,631.0,873.0,0.2522925950094776,0.8094547233673528,0.5056228820774319,0.45,0.49015718131950525,-0.11807367971552495,-0.22595127751594768,-0.10787759780042273
43,3,6,Atypical,1,Fledermaus,Vogel,Saeugetier,Saeugetier,Saeugetier,1719.0,1.719,1,173,593.0,826.0,0.4747208279601891,1.6023370957490735,0.7667500184683499,1.4,0.576923852309076,-0.49424134130015374,-0.7953172793357874,-0.3010759380356337
44,3,7,Typical,0,Alligator,Reptil,Saeugetier,Reptil,Reptil,1801.0,1.801,-1,182,678.0,862.0,0.4779425067962287,1.7192843325923308,0.8134682469864231,1.2,0.6790767705036727,-0.3986863923560262,-0.6674641022590087,-0.26877770990298244
45,3,8,Typical,0,Falke,Vogel,Reptil,Vogel,Vogel,1816.0,1.816,-1,183,635.0,887.0,0.3416726262158407,1.5189585944188977,0.7106453637289395,1.15,0.5769354026560956,-0.3760872184762007,-0.6360519323217316,-0.25996471384553094
46,3,9,Typical,0,Chamaeleon,Reptil,Insekt,Reptil,Reptil,1896.0,1.896,-1,191,706.0,869.0,0.24886541132033543,1.285041877103683,0.5091312174914068,0.75,0.44242475759266603,-0.2155497169325335,-0.394156167395676,-0.1786064504631425
47,3,10,Typical,0,Kaninchen,Reptil,Saeugetier,Saeugetier,Saeugetier,1184.0,1.184,1,120,550.0,893.0,0.299696541889483,1.0051158155636368,0.5790945239079373,0.5,0.5577926000455187,-0.13311286845349898,-0.25307847472559275,-0.11996560627209377
48,3,11,Atypical,1,Pinguin,Fisch,Vogel,Vogel,Vogel,2440.0,2.44,1,246,658.0,907.0,0.07716312056737591,1.344624139749544,0.46633115906845185,0.15,0.46434982361236044,-0.036339217857283786,-0.07155591092799143,-0.03521669307070765
49,3,12,Typical,0,Katze,Saeugetier,Reptil,Saeugetier,Saeugetier,1487.0,1.487,-1,150,553.0,817.0,0.49806155373541827,1.8160695795963833,0.8207244429776148,1.2,0.7047594824159238,-0.3986863923560262,-0.6674641022590087,-0.26877770990298244
50,3,13,Typical,0,Loewe,Fisch,Saeugetier,Saeugetier,Saeugetier,1240.0,1.24,1,126,620.0,844.0,0.04649462365591393,0.44131417434838704,0.23699602931843625,0.1,0.23520290278721367,-0.023931874853317565,-0.04727665738328592,-0.023344782529968352
51,3,14,Atypical,1,Seeloewe,Saeugetier,Fisch,Saeugetier,Saeugetier,3288.0,3.288,-1,330,732.0,840.0,0.14210543233686918,1.6465865361486338,0.635907794970765,0.7,0.5819549570856706,-0.19802835608933766,-0.36525244431605347,-0.1672240882267158
53,3,16,Atypical,1,Aal,Reptil,Fisch,Fisch,Fisch,1392.0,1.392,1,141,530.0,881.0,0.13253747687754344,0.6623680618264149,0.3710976233737977,0.2,0.3677626987623479,-0.04906328648132368,-0.09625719147880524,-0.04719390499748156
54,3,17,Typical,0,Lachs,Saeugetier,Fisch,Fisch,Fisch,1544.0,1.544,1,156,614.0,901.0,0.15620463690362132,0.7203529474084692,0.41455457629732306,0.3,0.40620458252867675,-0.0755292673810717,-0.1469108260209128,-0.0713815586398411
55,3,18,Typical,0,Klapperschlange,Reptil,Amphibie,Reptil,Reptil,2159.0,2.159,-1,217,600.0,956.0,0.23981150326797376,0.8910488256000006,0.625160287560529,0.35,0.6160238664375887,-0.0893166669454969,-0.17286009793038884,-0.08354343098489193
56,3,19,Typical,0,Goldfisch,Amphibie,Fisch,Fisch,Fisch,1416.0,1.416,1,143,578.0,930.0,0.12762073410679148,0.6104073645619376,0.34619835379114694,0.2,0.34181998764302546,-0.04906328648132368,-0.09625719147880524,-0.04719390499748156
57,4,1,Typical,0,Katze,Saeugetier,Reptil,Saeugetier,Saeugetier,1208.0,1.208,-1,122,607.0,918.0,0.23229111347998835,0.6413023581205931,0.3865038900772526,0.5,0.35039083242435715,-0.13311286845349898,-0.25307847472559275,-0.11996560627209377
58,4,2,Atypical,1,Fledermaus,Vogel,Saeugetier,Saeugetier,Saeugetier,2088.0,2.088,1,210,562.0,866.0,0.36722685088270185,1.6689429265309612,0.7289999705296385,1.05,0.6089428295091671,-0.33253106914623176,-0.5739500230282262,-0.2414189538819944
59,4,3,Typical,0,Kaninchen,Saeugetier,Reptil,Saeugetier,Saeugetier,1216.0,1.216,-1,123,625.0,865.0,0.1290936470588235,0.5560310144000001,0.2731389059834735,0.3,0.2571106675542026,-0.0755292673810717,-0.1469108260209128,-0.0713815586398411
60,4,4,Typical,0,Spatz,Vogel,Saeugetier,Vogel,Vogel,1096.0,1.096,-1,111,655.0,897.0,0.1075143242029636,0.282997251908397,0.17008308724406046,0.25,0.15024106788182545,-0.06212157856216344,-0.12137670396361751,-0.05925512540145407
61,4,5,Typical,0,Loewe,Fisch,Saeugetier,Saeugetier,Saeugetier,1048.0,1.048,1,106,571.0,856.0,0.13598502798667628,0.6093339246290719,0.25897922825165154,0.35,0.2325623000076379,-0.0893166669454969,-0.17286009793038884,-0.08354343098489193
62,4,6,Typical,0,Hund,Saeugetier,Insekt,Saeugetier,Saeugetier,977.0,0.977,-1,99,570.0,866.0,0.17050546955624352,0.5620947485192982,0.31585676951107927,0.4,0.2924892376949949,-0.10349599838173126,-0.1992018401254721,-0.09570584174374083
63,4,7,Atypical,1,Wal,Saeugetier,Fisch,Saeugetier,Saeugetier,1992.0,1.992,-1,201,523.0,867.0,0.38286326997338127,1.8875619721055448,0.8136812328564126,1.15,0.6949312496385194,-0.3760872184762007,-0.6360519323217316,-0.25996471384553094
64,4,8,Typical,0,Alligator,Reptil,Saeugetier,Reptil,Reptil,1192.0,1.192,-1,121,589.0,847.0,0.10061253703518758,0.3659878980672324,0.17872362420232915,0.3,0.1528213892886816,-0.0755292673810717,-0.1469108260209128,-0.0713815586398411
65,4,9,Atypical,1,Aal,Reptil,Fisch,Fisch,Fisch,1601.0,1.601,1,162,576.0,876.0,0.555981345315904,1.8599849936444446,0.9350833561333651,2.0,0.6050282369864252,-0.8207793177760799,-1.1960460819200767,-0.37526676414399673
66,4,10,Typical,0,Lachs,Fisch,Saeugetier,Fisch,Fisch,1072.0,1.072,-1,109,549.0,841.0,0.15835394121218613,0.6291578457296905,0.305187736038698,0.4,0.2794903191834396,-0.10349599838173126,-0.1992018401254721,-0.09570584174374083
67,4,11,Typical,0,Goldfisch,Fisch,Amphibie,Fisch,Fisch,952.0,0.952,-1,97,615.0,808.0,0.1356114139964929,0.5293212648065041,0.282078206071165,0.3,0.26691285272027165,-0.0755292673810717,-0.1469108260209128,-0.0713815586398411
68,4,12,Typical,0,Falke,Reptil,Vogel,Vogel,Vogel,1296.0,1.296,1,131,540.0,901.0,0.5840220769789396,1.956598188088889,0.9437071086172156,2.0,0.6366559831363463,-0.8207793177760799,-1.1960460819200767,-0.37526676414399673
69,4,13,Typical,0,Pferd,Vogel,Saeugetier,Saeugetier,Saeugetier,1191.0,1.191,1,121,638.0,859.0,0.16528274632737106,0.8931425339385578,0.3401579167331327,0.5,0.2949128117532127,-0.13311286845349898,-0.25307847472559275,-0.11996560627209377
70,4,14,Typical,0,Chamaeleon,Reptil,Insekt,Reptil,Reptil,1144.0,1.144,-1,116,590.0,858.0,0.07114336989032899,0.5089718836067797,0.2738004832404432,0.15,0.27149492229506944,-0.036339217857283786,-0.07155591092799143,-0.03521669307070765
71,4,15,Atypical,1,Schmetterling,Vogel,Insekt,Insekt,Insekt,1456.0,1.456,1,147,590.0,847.0,-0.007236689930209382,0.3663115012338987,0.26789064179530975,0.0,0.26789064179530975,0.0,0.0,0.0
72,4,16,Typical,0,Klapperschlange,Reptil,Amphibie,Reptil,Reptil,2495.0,2.495,-1,251,626.0,840.0,0.6062895445718222,1.6060277398492013,0.8703733231289142,2.0,0.5169330453535913,-0.8207793177760799,-1.1960460819200767,-0.37526676414399673
73,4,17,Atypical,1,Seeloewe,Saeugetier,Fisch,Saeugetier,Saeugetier,1488.0,1.488,-1,150,597.0,859.0,0.4449151640555719,1.3749117396261314,0.681001403082114,1.2,0.5088055317551058,-0.3986863923560262,-0.6674641022590087,-0.26877770990298244
74,4,18,Typical,0,Hai,Fisch,Saeugetier,Fisch,Fisch,1873.0,1.873,-1,189,622.0,849.0,-0.09630723157430177,0.2728164258572351,0.3931505088826813,0.0,0.3931505088826813,0.0,0.0,0.0
76,5,1,Atypical,1,Fledermaus,Saeugetier,Vogel,Saeugetier,Saeugetier,2504.0,2.504,-1,252,539.0,816.0,0.46240678089417575,1.516679677720222,0.7066150782146603,1.2,0.5515566820990235,-0.3986863923560262,-0.6674641022590087,-0.26877770990298244
77,5,2,Typical,0,Spatz,Vogel,Saeugetier,Vogel,Vogel,2295.0,2.295,-1,231,820.0,877.0,0.2513680057388809,0.7784737407999993,0.5214889164024803,0.45,0.5052592453165311,-0.11807367971552495,-0.22595127751594768,-0.10787759780042273
78,5,3,Typical,0,Goldfisch,Amphibie,Fisch,Fisch,Fisch,2000.0,2.0,1,201,524.0,789.0,0.15941101631492288,0.7010096375206106,0.29871381051878676,0.4,0.27243145651334827,-0.10349599838173126,-0.1992018401254721,-0.09570584174374083
79,5,4,Typical,0,Loewe,Fisch,Saeugetier,Saeugetier,Saeugetier,1849.0,1.849,1,186,523.0,870.0,0.27604393956435347,0.8841811977789669,0.5057970348318944,0.5,0.4828754459780505,-0.13311286845349898,-0.25307847472559275,-0.11996560627209377
80,5,5,Typical,0,Katze,Saeugetier,Reptil,Saeugetier,Saeugetier,1710.0,1.71,-1,173,587.0,826.0,0.14144637071182814,0.3759497092797273,0.2373094796303428,0.3,0.21637208587599588,-0.0755292673810717,-0.1469108260209128,-0.0713815586398411
81,5,6,Typical,0,Alligator,Saeugetier,Reptil,Reptil,Reptil,1952.0,1.952,1,197,674.0,828.0,0.15074533077325883,0.6799625135097924,0.3317632163785158,0.35,0.3117329234282497,-0.0893166669454969,-0.17286009793038884,-0.08354343098489193
82,5,7,Atypical,1,Wal,Fisch,Saeugetier,Saeugetier,Saeugetier,2199.0,2.199,1,221,644.0,909.0,0.382757276823773,1.2724526054559007,0.6013994811371773,0.9,0.5107425307519994,-0.2714652027631275,-0.48275380249416655,-0.21128859973103903
83,5,8,Typical,0,Lachs,Saeugetier,Fisch,Fisch,Fisch,2704.0,2.704,1,272,525.0,867.0,0.2027349393090569,0.7170703798857135,0.35261389273861715,0.5,0.31758026705056314,-0.13311286845349898,-0.25307847472559275,-0.11996560627209377
84,5,9,Atypical,1,Pinguin,Vogel,Fisch,Vogel,Vogel,13416.0,13.416,-1,1343,531.0,820.0,0.31039695727631905,1.8106490395480241,0.781316859425317,1.1,0.6537250687640017,-0.35403142199600124,-0.6048758344486094,-0.25084441245260813
85,5,10,Typical,0,Hund,Insekt,Saeugetier,Saeugetier,Saeugetier,1551.0,1.551,1,157,561.0,803.0,0.18476767676767678,0.5696706549048126,0.37321248400064744,0.3,0.3609114246677675,-0.0755292673810717,-0.1469108260209128,-0.0713815586398411
86,5,11,Typical,0,Chamaeleon,Reptil,Insekt,Reptil,Reptil,2663.0,2.663,-1,268,487.0,838.0,0.3214999396062325,1.117136985153182,0.535362171098185,0.75,0.469136674126598,-0.2155497169325335,-0.394156167395676,-0.1786064504631425
87,5,12,Atypical,1,Aal,Fisch,Reptil,Fisch,Fisch,1776.0,1.776,-1,179,584.0,802.0,0.12334622616169753,0.3376849234410958,0.23445914586786126,0.2,0.22695046911431976,-0.04906328648132368,-0.09625719147880524,-0.04719390499748156
88,5,13,Typical,0,Kaninchen,Saeugetier,Reptil,Saeugetier,Saeugetier,1767.0,1.767,-1,178,471.0,807.0,0.10571483285458555,0.4914012738853503,0.30180414249963633,0.15,0.29974800228707094,-0.036339217857283786,-0.07155591092799143,-0.03521669307070765
89,5,14,Typical,0,Pferd,Vogel,Saeugetier,Saeugetier,Saeugetier,1751.0,1.751,1,177,600.0,822.0,0.1618439869281045,0.5230866858666667,0.32412665698544285,0.3,0.311361522094233,-0.0755292673810717,-0.1469108260209128,-0.0713815586398411
90,5,15,Typical,0,Klapperschlange,Amphibie,Reptil,Reptil,Reptil,1864.0,1.864,1,188,585.0,828.0,0.13915347745935977,0.46615023721025634,0.2563563839101107,0.3,0.24219994577690804,-0.0755292673810717,-0.1469108260209128,-0.0713815586398411
91,5,16,Typical,0,Falke,Vogel,Reptil,Vogel,Vogel,4335.0,4.335,-1,435,562.0,869.0,0.5504577489358732,2.0056078024427038,1.0243622475863419,1.2,0.9305305369258633,-0.3986863923560262,-0.6674641022590087,-0.26877770990298244
92,5,17,Typical,0,Hai,Saeugetier,Fisch,Fisch,Fisch,3256.0,3.256,1,327,578.0,842.0,-0.04377284754732344,0.2261637415861592,0.22025678325013312,0.0,0.22025678325013312,0.0,0.0,0.0
93,5,18,Atypical,1,Seeloewe,Fisch,Saeugetier,Saeugetier,Saeugetier,3055.0,3.055,1,307,558.0,801.0,0.13999437767938713,0.5187503417806452,0.288255882464052,0.25,0.2797624513719105,-0.06212157856216344,-0.12137670396361751,-0.05925512540145407
94,5,19,Atypical,1,Schmetterling,Insekt,Vogel,Insekt,Insekt,2847.0,2.847,-1,286,588.0,847.0,0.2467107509670535,0.7555516739918376,0.44104947485919505,0.45,0.4158376338996904,-0.11807367971552495,-0.22595127751594768,-0.10787759780042273
95,6,1,Atypical,1,Schmetterling,Vogel,Insekt,Insekt,Insekt,984.0,0.984,1,100,864.0,848.0,0.2779829339143064,0.9460563981037046,0.46331747983924265,0.65,0.413222999605292,-0.18104253713442486,-0.33667875115684626,-0.1556362140224214
96,6,2,Typical,0,Katze,Saeugetier,Reptil,Saeugetier,Saeugetier,823.0,0.823,-1,84,614.0,898.0,0.22374605607715398,0.5673098236664493,0.41660075012325465,0.35,0.4031956257089082,-0.0893166669454969,-0.17286009793038884,-0.08354343098489193
97,6,3,Typical,0,Chamaeleon,Reptil,Insekt,Reptil,Reptil,1472.0,1.472,-1,149,618.0,843.0,0.7732231740592675,1.8805913268608418,1.0782086108701865,2.0,0.8381567582325834,-0.8207793177760799,-1.1960460819200767,-0.37526676414399673
98,6,4,Typical,0,Goldfisch,Fisch,Amphibie,Fisch,Fisch,816.0,0.816,-1,83,540.0,781.0,0.2249344952795933,0.6123337348740739,0.42933360193562325,0.35,0.4163360787649596,-0.0893166669454969,-0.17286009793038884,-0.08354343098489193
99,6,5,Typical,0,Hund,Saeugetier,Insekt,Saeugetier,Saeugetier,824.0,0.824,-1,84,613.0,834.0,0.23734600006397338,0.6892597070303427,0.4839821623560341,0.35,0.4717796085809318,-0.0893166669454969,-0.17286009793038884,-0.08354343098489193
100,6,6,Atypical,1,Fledermaus,Saeugetier,Vogel,Saeugetier,Saeugetier,2199.0,2.199,-1,221,519.0,866.0,0.6329870414447089,2.4013793644023114,1.2916039248393478,1.75,1.1356761890380758,-0.678552396000428,-1.0263528241060489,-0.34780042810562084
101,6,7,Typical,0,Spatz,Saeugetier,Vogel,Vogel,Vogel,952.0,0.952,1,97,695.0,874.0,0.2205182113133023,0.7793006661064751,0.4107800849455333,0.5,0.3761360475554306,-0.13311286845349898,-0.25307847472559275,-0.11996560627209377
102,6,8,Atypical,1,Seeloewe,Saeugetier,Fisch,Saeugetier,Saeugetier,1200.0,1.2,-1,122,511.0,777.0,0.11316910325774145,0.38511052218865066,0.1882912621118402,0.25,0.17632275913276693,-0.06212157856216344,-0.12137670396361751,-0.05925512540145407
103,6,9,Typical,0,Pferd,Saeugetier,Vogel,Saeugetier,Saeugetier,952.0,0.952,-1,97,701.0,796.0,0.35092646359542395,1.0244748610830245,0.5881649229499261,0.6,0.5542241062665861,-0.16457458950838247,-0.30845571585668585,-0.14388112634830338
104,6,10,Atypical,1,Pinguin,Fisch,Vogel,Vogel,Vogel,2088.0,2.088,1,210,471.0,818.0,1.185346988052121,2.4651352374895974,1.5841066674412354,2.0,1.0797412875276695,-0.8207793177760799,-1.1960460819200767,-0.37526676414399673
105,6,11,Typical,0,Loewe,Saeugetier,Fisch,Saeugetier,Saeugetier,1168.0,1.168,-1,119,499.0,746.0,0.025595819089158693,0.36504026425971936,0.21768972502801767,0.0,0.21768972502801767,0.0,0.0,0.0
106,6,12,Typical,0,Kaninchen,Saeugetier,Reptil,Saeugetier,Saeugetier,920.0,0.92,-1,94,611.0,933.0,0.2442996052758255,0.6748726379888709,0.4751834331139628,0.35,0.46213664287190553,-0.0893166669454969,-0.17286009793038884,-0.08354343098489193
107,6,13,Atypical,1,Wal,Fisch,Saeugetier,Saeugetier,Saeugetier,1895.0,1.895,1,191,708.0,831.0,0.7777775008308407,1.7919000038327673,1.079532881522834,2.0,0.7526779601552311,-0.8207793177760799,-1.1960460819200767,-0.37526676414399673
108,6,14,Typical,0,Alligator,Saeugetier,Reptil,Reptil,Reptil,1536.0,1.536,1,155,750.0,827.0,0.25254839215686276,0.8069030741333326,0.5215601015454289,0.4,0.5070765934450887,-0.10349599838173126,-0.1992018401254721,-0.09570584174374083
109,6,15,Atypical,1,Aal,Reptil,Fisch,Fisch,Fisch,1544.0,1.544,1,156,650.0,844.0,0.2694701659125188,0.7305180790153855,0.5262917666759593,0.4,0.5122707305019496,-0.10349599838173126,-0.1992018401254721,-0.09570584174374083
110,6,16,Typical,0,Hai,Saeugetier,Fisch,Fisch,Fisch,1511.0,1.511,1,153,653.0,874.0,0.130201783623097,0.6697278815264929,0.31803251467388544,0.35,0.30038466182670504,-0.0893166669454969,-0.17286009793038884,-0.08354343098489193
111,6,17,Typical,0,Klapperschlange,Reptil,Amphibie,Reptil,Reptil,5744.0,5.744,-1,576,624.0,828.0,0.4433240321769732,1.8736798674051278,1.0852140203099112,1.7,0.9135368277826111,-0.6510643055038201,-0.9928470289676826,-0.3417827234638625
112,6,18,Typical,0,Falke,Vogel,Reptil,Vogel,Vogel,1024.0,1.024,-1,104,650.0,861.0,0.205142443438914,0.6675000684307694,0.446295262599817,0.3,0.4359091132074523,-0.0755292673810717,-0.1469108260209128,-0.0713815586398411
113,6,19,Typical,0,Lachs,Fisch,Saeugetier,Fisch,Fisch,1169.0,1.169,-1,118,565.0,834.0,0.2715430157903869,0.7691473756884956,0.529098269127252,0.45,0.5136536734330384,-0.11807367971552495,-0.22595127751594768,-0.10787759780042273
114,7,1,Typical,0,Hund,Insekt,Saeugetier,Saeugetier,Saeugetier,1280.0,1.28,1,130,767.0,897.0,0.14006339954495486,0.5834716017147326,0.3509734506501251,0.25,0.34315257183016434,-0.06212157856216344,-0.12137670396361751,-0.05925512540145407
115,7,2,Typical,0,Loewe,Fisch,Saeugetier,Saeugetier,Saeugetier,1352.0,1.352,1,137,512.0,791.0,0.30415073529411757,1.1983214444000008,0.5258834506207312,0.9,0.41756057898280496,-0.2714652027631275,-0.48275380249416655,-0.21128859973103903
116,7,3,Typical,0,Pferd,Saeugetier,Vogel,Saeugetier,Saeugetier,1463.0,1.463,-1,148,498.0,819.0,0.004487912434049905,0.18918441767068267,0.20930771890307337,0.25,0.19828247817642458,-0.06212157856216344,-0.12137670396361751,-0.05925512540145407
117,7,4,Typical,0,Goldfisch,Amphibie,Fisch,Fisch,Fisch,1088.0,1.088,1,110,548.0,871.0,0.14715929583512236,0.30674768574598543,0.23560271319301035,0.25,0.22247603150499184,-0.06212157856216344,-0.12137670396361751,-0.05925512540145407
118,7,5,Typical,0,Kaninchen,Reptil,Saeugetier,Saeugetier,Saeugetier,1103.0,1.103,1,112,625.0,894.0,0.11380699607843134,0.3495113855999999,0.23588485381569202,0.15,0.2321848119663422,-0.036339217857283786,-0.07155591092799143,-0.03521669307070765
119,7,6,Typical,0,Spatz,Saeugetier,Vogel,Vogel,Vogel,944.0,0.944,1,96,602.0,901.0,0.12137606670575203,0.3983633152850497,0.21483506871976432,0.25,0.19978796495266188,-0.06212157856216344,-0.12137670396361751,-0.05925512540145407
120,7,7,Typical,0,Lachs,Saeugetier,Fisch,Fisch,Fisch,912.0,0.912,1,93,618.0,916.0,0.1567231423313662,0.4438474241656957,0.27104538862782535,0.35,0.2505291141919604,-0.0893166669454969,-0.17286009793038884,-0.08354343098489193
121,7,8,Atypical,1,Pinguin,Vogel,Fisch,Vogel,Vogel,3095.0,3.095,-1,311,555.0,872.0,0.7503363363363363,1.8479135052108115,1.0659937726263482,2.0,0.48035429631266485,-0.8207793177760799,-1.1960460819200767,-0.37526676414399673
122,7,9,Typical,0,Katze,Reptil,Saeugetier,Saeugetier,Saeugetier,1520.0,1.52,1,154,635.0,831.0,0.3070020071020534,1.2535069048944885,0.5689967696331807,1.1,0.38934139426472,-0.35403142199600124,-0.6048758344486094,-0.25084441245260813
123,7,10,Typical,0,Alligator,Reptil,Saeugetier,Reptil,Reptil,1240.0,1.24,-1,126,487.0,806.0,0.23816000322100095,0.9240921043318275,0.39714446171600537,0.6,0.33842011962662055,-0.16457458950838247,-0.30845571585668585,-0.14388112634830338
124,7,11,Atypical,1,Aal,Fisch,Reptil,Fisch,Fisch,1080.0,1.08,-1,110,526.0,834.0,0.2186356519794229,0.7662101901140681,0.36267590090780993,0.5,0.32153943587167855,-0.13311286845349898,-0.25307847472559275,-0.11996560627209377
125,7,12,Typical,0,Chamaeleon,Reptil,Insekt,Reptil,Reptil,1120.0,1.12,-1,114,530.0,823.0,0.09165371809100997,0.3523382535245282,0.17910490603555201,0.25,0.16485224561437734,-0.06212157856216344,-0.12137670396361751,-0.05925512540145407
126,7,13,Atypical,1,Seeloewe,Fisch,Saeugetier,Saeugetier,Saeugetier,1416.0,1.416,1,143,538.0,883.0,-0.02543071652452806,0.1345846237739777,0.10128094005685928,0.0,0.10128094005685928,0.0,0.0,0.0
127,7,14,Typical,0,Klapperschlange,Reptil,Amphibie,Reptil,Reptil,2248.0,2.248,-1,226,434.0,925.0,-0.11701002981837898,0.14298783410138252,0.2637078881067987,0.0,0.2637078881067987,0.0,0.0,0.0
128,7,15,Atypical,1,Fledermaus,Saeugetier,Vogel,Saeugetier,Saeugetier,1489.0,1.489,-1,150,533.0,785.0,0.16947114005076702,0.4234521575984991,0.3058150681393484,0.3,0.293926224512525,-0.0755292673810717,-0.1469108260209128,-0.0713815586398411
129,7,16,Atypical,1,Schmetterling,Insekt,Vogel,Insekt,Insekt,1560.0,1.56,-1,157,588.0,861.0,0.4428077897825797,1.4622916121251701,0.6465482212014323,1.15,0.4957060046936676,-0.3760872184762007,-0.6360519323217316,-0.25996471384553094
130,7,17,Typical,0,Hai,Fisch,Saeugetier,Fisch,Fisch,1577.0,1.577,-1,159,512.0,856.0,0.377607613357843,1.3598839444000008,0.5836667889743721,1.0,0.46335560744812887,-0.31160384054626533,-0.5432804372021593,-0.23167659665589402
131,7,18,Typical,0,Falke,Vogel,Reptil,Vogel,Vogel,1023.0,1.023,-1,104,644.0,803.0,0.18829466569236386,0.6135848447204966,0.3931532798733658,0.35,0.37889430103419236,-0.0893166669454969,-0.17286009793038884,-0.08354343098489193
132,7,19,Atypical,1,Wal,Fisch,Saeugetier,Saeugetier,Saeugetier,1896.0,1.896,1,191,582.0,874.0,0.5749356512364395,1.6203553311670102,0.8578192074953003,2.0,0.49076369979755713,-0.8207793177760799,-1.1960460819200767,-0.37526676414399673
133,8,1,Atypical,1,Pinguin,Vogel,Fisch,Vogel,Vogel,5167.0,5.167,-1,518,683.0,807.0,-0.13739620474837083,0.16307999999999995,0.3534045462364224,0.0,0.3534045462364224,0.0,0.0,0.0
134,8,2,Typical,0,Klapperschlange,Reptil,Amphibie,Reptil,Reptil,3240.0,3.24,-1,326,507.0,816.0,0.23255366051746137,0.7768355361325444,0.47284427364194526,0.45,0.45616644817389385,-0.11807367971552495,-0.22595127751594768,-0.10787759780042273
136,8,4,Atypical,1,Wal,Saeugetier,Fisch,Saeugetier,Saeugetier,1960.0,1.96,-1,198,652.0,832.0,0.27377841934319735,0.8332390184049077,0.545206408038919,0.45,0.5290281770128675,-0.11807367971552495,-0.22595127751594768,-0.10787759780042273
137,8,5,Atypical,1,Schmetterling,Insekt,Vogel,Insekt,Insekt,2672.0,2.672,-1,269,599.0,850.0,0.21463131362728727,0.7811598843726201,0.47779484212926887,0.35,0.46466557456073126,-0.0893166669454969,-0.17286009793038884,-0.08354343098489193
139,8,7,Typical,0,Spatz,Saeugetier,Vogel,Vogel,Vogel,1504.0,1.504,1,152,583.0,808.0,0.10340362560118387,0.566941334811664,0.3241452039833592,0.15,0.3215034410572835,-0.036339217857283786,-0.07155591092799143,-0.03521669307070765
140,8,8,Typical,0,Kaninchen,Reptil,Saeugetier,Saeugetier,Saeugetier,5504.0,5.504,1,552,477.0,811.0,0.6069683890327618,1.5862159866633123,0.8523484056840444,1.95,0.5498853201747511,-0.7917415667061343,-1.1618352044659443,-0.3700936377598101
141,8,9,Typical,0,Lachs,Fisch,Saeugetier,Fisch,Fisch,1488.0,1.488,-1,150,629.0,917.0,0.24111337635213068,0.789480100100476,0.4974840112186124,0.45,0.4812107156744024,-0.11807367971552495,-0.22595127751594768,-0.10787759780042273
142,8,10,Typical,0,Loewe,Saeugetier,Fisch,Saeugetier,Saeugetier,2568.0,2.568,-1,258,617.0,765.0,0.300064575587123,0.9067488256000007,0.6161917873516419,0.45,0.6004656794419275,-0.11807367971552495,-0.22595127751594768,-0.10787759780042273
143,8,11,Typical,0,Alligator,Saeugetier,Reptil,Reptil,Reptil,2232.0,2.232,1,225,533.0,813.0,0.23252106095721586,0.8065619209125696,0.4958459889071377,0.35,0.48334405120425256,-0.0893166669454969,-0.17286009793038884,-0.08354343098489193
144,8,12,Typical,0,Falke,Vogel,Reptil,Vogel,Vogel,1528.0,1.528,-1,154,565.0,877.0,0.20937942044074268,0.7403239333380539,0.4555267638020182,0.35,0.44364661822547435,-0.0893166669454969,-0.17286009793038884,-0.08354343098489193
145,8,13,Typical,0,Hai,Saeugetier,Fisch,Fisch,Fisch,2000.0,2.0,1,202,628.0,823.0,0.07943049831397525,0.5374600192000001,0.2947958819282385,0.1,0.29310400136326986,-0.023931874853317565,-0.04727665738328592,-0.023344782529968352
146,8,14,Typical,0,Pferd,Saeugetier,Vogel,Saeugetier,Saeugetier,1480.0,1.48,-1,150,569.0,891.0,0.2498880044109032,0.7959763770038657,0.5103641217435395,0.4,0.49564687436421484,-0.10349599838173126,-0.1992018401254721,-0.09570584174374083
147,8,15,Typical,0,Hund,Insekt,Saeugetier,Saeugetier,Saeugetier,1480.0,1.48,1,150,551.0,824.0,0.1873136187324294,0.7151299888551725,0.42501416956294763,0.3,0.41548073951823766,-0.0755292673810717,-0.1469108260209128,-0.0713815586398411
148,8,16,Atypical,1,Aal,Reptil,Fisch,Fisch,Fisch,2192.0,2.192,1,221,574.0,834.0,0.24778274236523878,0.8369199999999997,0.5400146664525276,0.4,0.5277602908233954,-0.10349599838173126,-0.1992018401254721,-0.09570584174374083
149,8,17,Typical,0,Chamaeleon,Insekt,Reptil,Reptil,Reptil,1919.0,1.919,1,193,592.0,821.0,0.21160943296237414,0.7801491456,0.48705814448325707,0.35,0.47686984243560315,-0.0893166669454969,-0.17286009793038884,-0.08354343098489193
150,8,18,Atypical,1,Seeloewe,Fisch,Saeugetier,Saeugetier,Saeugetier,2408.0,2.408,1,242,622.0,836.0,0.2920625433453123,0.8969996294585214,0.6033115560545582,0.45,0.588450041214483,-0.11807367971552495,-0.22595127751594768,-0.10787759780042273
151,8,19,Typical,0,Goldfisch,Amphibie,Fisch,Fisch,Fisch,2024.0,2.024,1,204,571.0,821.0,0.39652992685690736,1.375045201126445,0.6618400369621712,1.05,0.5382536748760769,-0.33253106914623176,-0.5739500230282262,-0.2414189538819944
152,9,1,Typical,0,Goldfisch,Fisch,Amphibie,Fisch,Fisch,896.0,0.896,-1,91,574.0,904.0,0.198822163011546,0.6679657451930315,0.4190665404307648,0.35,0.4059096217307313,-0.0893166669454969,-0.17286009793038884,-0.08354343098489193
153,9,2,Typical,0,Katze,Reptil,Saeugetier,Saeugetier,Saeugetier,1215.0,1.215,1,123,537.0,856.0,0.18907620403841235,0.5746806144000002,0.38140798117053487,0.3,0.37012142980765456,-0.0755292673810717,-0.1469108260209128,-0.0713815586398411
154,9,3,Typical,0,Alligator,Reptil,Saeugetier,Reptil,Reptil,1088.0,1.088,-1,110,529.0,874.0,0.14329945513176914,0.46446124763705104,0.2775821898041042,0.3,0.2634960071668702,-0.0755292673810717,-0.1469108260209128,-0.0713815586398411
155,9,4,Typical,0,Pferd,Saeugetier,Vogel,Saeugetier,Saeugetier,968.0,0.968,-1,98,552.0,899.0,0.15829610684853648,0.6295611100753622,0.39063495608314674,0.25,0.38519533988603727,-0.06212157856216344,-0.12137670396361751,-0.05925512540145407
156,9,5,Atypical,1,Schmetterling,Insekt,Vogel,Insekt,Insekt,1576.0,1.576,-1,159,588.0,865.0,-0.13601947445644927,0.1369947595755102,0.334846157898449,0.0,0.334846157898449,0.0,0.0,0.0
158,9,7,Typical,0,Chamaeleon,Reptil,Insekt,Reptil,Reptil,1272.0,1.272,-1,129,646.0,821.0,0.18243550051599583,0.7105278750513934,0.4251846207092191,0.35,0.4108126639871093,-0.0893166669454969,-0.17286009793038884,-0.08354343098489193
160,9,9,Atypical,1,Aal,Fisch,Reptil,Fisch,Fisch,1424.0,1.424,-1,144,563.0,883.0,0.18547542924807575,0.7063352317044407,0.438593237279261,0.3,0.43043510704855764,-0.0755292673810717,-0.1469108260209128,-0.0713815586398411
162,9,11,Atypical,1,Pinguin,Vogel,Fisch,Vogel,Vogel,2295.0,2.295,-1,231,577.0,806.0,-0.15203350664355864,0.053240623916811086,0.3666643385502409,0.0,0.3666643385502409,0.0,0.0,0.0
163,9,12,Typical,0,Klapperschlange,Amphibie,Reptil,Reptil,Reptil,2705.0,2.705,1,272,689.0,835.0,0.594647542616466,1.8602541743558771,0.871842860657488,1.65,0.6695371577120286,-0.6239433191380308,-0.9594981203111543,-0.33555480117312353
164,9,13,Typical,0,Falke,Vogel,Reptil,Vogel,Vogel,1280.0,1.28,-1,130,710.0,845.0,0.15318530792598725,0.5609244495323943,0.36155727641769053,0.25,0.35472335183053455,-0.06212157856216344,-0.12137670396361751,-0.05925512540145407
165,9,14,Typical,0,Spatz,Saeugetier,Vogel,Vogel,Vogel,1263.0,1.263,1,128,565.0,926.0,0.45630942217595005,1.6032677296707964,0.7249566780112616,1.2,0.5638715887923521,-0.3986863923560262,-0.6674641022590087,-0.26877770990298244
166,9,15,Typical,0,Loewe,Fisch,Saeugetier,Saeugetier,Saeugetier,1825.0,1.825,1,184,486.0,848.0,0.46132090696360845,2.2215636404148156,0.820302775522144,1.0,0.7419807538620854,-0.31160384054626533,-0.5432804372021593,-0.23167659665589402
167,9,16,Typical,0,Lachs,Fisch,Saeugetier,Fisch,Fisch,2520.0,2.52,-1,254,629.0,818.0,-0.20599083512578323,0.21967777424483304,0.4180409951220984,0.0,0.4180409951220984,0.0,0.0,0.0
168,9,17,Typical,0,Kaninchen,Saeugetier,Reptil,Saeugetier,Saeugetier,1370.0,1.37,-1,139,583.0,919.0,0.16896714088722967,0.6305814446765007,0.3851128549675822,0.25,0.37780729780883054,-0.06212157856216344,-0.12137670396361751,-0.05925512540145407
170,9,19,Typical,0,Hund,Insekt,Saeugetier,Saeugetier,Saeugetier,960.0,0.96,1,98,698.0,976.0,0.18681049497162758,0.6565141020607448,0.3508115915119751,0.4,0.32865456275066535,-0.10349599838173126,-0.1992018401254721,-0.09570584174374083
171,10,1,Typical,0,Hai,Fisch,Saeugetier,Fisch,Fisch,1656.0,1.656,-1,168,668.0,811.0,0.03076881531055533,0.4318932742131737,0.2482821781840021,0.0,0.2482821781840021,0.0,0.0,0.0
172,10,2,Typical,0,Loewe,Saeugetier,Fisch,Saeugetier,Saeugetier,1479.0,1.479,-1,149,544.0,824.0,0.46031689734717407,1.6229884567529411,0.7527058897261572,1.05,0.6667065239641926,-0.33253106914623176,-0.5739500230282262,-0.2414189538819944
173,10,3,Typical,0,Klapperschlange,Reptil,Amphibie,Reptil,Reptil,1656.0,1.656,-1,168,728.0,907.0,0.21152574876104285,0.6277477835956048,0.43343805052749645,0.35,0.4198927371655511,-0.0893166669454969,-0.17286009793038884,-0.08354343098489193
174,10,4,Atypical,1,Seeloewe,Fisch,Saeugetier,Saeugetier,Saeugetier,1616.0,1.616,1,164,584.0,842.0,0.21010287402632283,0.6335692498410957,0.39589025433603764,0.35,0.38103623610779136,-0.0893166669454969,-0.17286009793038884,-0.08354343098489193
175,10,5,Typical,0,Spatz,Saeugetier,Vogel,Vogel,Vogel,1280.0,1.28,1,129,626.0,857.0,0.2360771784752239,0.701518469234504,0.489896365757757,0.35,0.47679153445405026,-0.0893166669454969,-0.17286009793038884,-0.08354343098489193
176,10,6,Typical,0,Alligator,Reptil,Saeugetier,Reptil,Reptil,1368.0,1.368,-1,139,583.0,790.0,0.2696210944068879,0.9306397116377358,0.4940938570344791,0.5,0.4680511456028485,-0.13311286845349898,-0.25307847472559275,-0.11996560627209377
177,10,7,Atypical,1,Aal,Reptil,Fisch,Fisch,Fisch,1808.0,1.808,1,183,629.0,805.0,0.16503494497958168,0.6584582511923684,0.380415594849767,0.3,0.36937650267689576,-0.0755292673810717,-0.1469108260209128,-0.0713815586398411
178,10,8,Atypical,1,Pinguin,Fisch,Vogel,Vogel,Vogel,1911.0,1.911,1,193,648.0,831.0,0.24296786492374722,0.6324365911703694,0.435248056625829,0.4,0.4185436660299604,-0.10349599838173126,-0.1992018401254721,-0.09570584174374083
179,10,9,Typical,0,Hund,Insekt,Saeugetier,Saeugetier,Saeugetier,1368.0,1.368,1,139,595.0,788.0,0.25111919591365955,0.720154795240337,0.4708731379341888,0.45,0.45315766884715597,-0.11807367971552495,-0.22595127751594768,-0.10787759780042273
180,10,10,Typical,0,Lachs,Fisch,Saeugetier,Fisch,Fisch,1112.0,1.112,-1,114,586.0,796.0,0.2041924646991902,0.5696089659412966,0.3504371661343173,0.45,0.3267293294816466,-0.11807367971552495,-0.22595127751594768,-0.10787759780042273
181,10,11,Typical,0,Kaninchen,Saeugetier,Reptil,Saeugetier,Saeugetier,1056.0,1.056,-1,107,635.0,803.0,0.21815618341824916,0.7299908833763789,0.4630369909496208,0.35,0.45018506575841627,-0.0893166669454969,-0.17286009793038884,-0.08354343098489193
182,10,12,Typical,0,Pferd,Saeugetier,Vogel,Saeugetier,Saeugetier,1064.0,1.064,-1,108,624.0,775.0,0.1560290346907994,0.5934951784205126,0.3440400156908762,0.25,0.3356287333002341,-0.06212157856216344,-0.12137670396361751,-0.05925512540145407
183,10,13,Typical,0,Falke,Reptil,Vogel,Vogel,Vogel,1088.0,1.088,1,110,592.0,818.0,0.2342655007949125,0.7404552451459462,0.4417610764674648,0.45,0.4213976318086919,-0.11807367971552495,-0.22595127751594768,-0.10787759780042273
184,10,14,Typical,0,Katze,Saeugetier,Reptil,Saeugetier,Saeugetier,1120.0,1.12,-1,114,640.0,872.0,0.15909926470588232,0.6059596608,0.35864446739281947,0.3,0.3479203602959299,-0.0755292673810717,-0.1469108260209128,-0.0713815586398411
185,10,15,Atypical,1,Schmetterling,Vogel,Insekt,Insekt,Insekt,1520.0,1.52,1,154,621.0,844.0,0.2814391714817972,0.9407291034177142,0.45405065108092546,0.75,0.37520796072766255,-0.2155497169325335,-0.394156167395676,-0.1786064504631425
186,10,16,Typical,0,Goldfisch,Fisch,Amphibie,Fisch,Fisch,1344.0,1.344,-1,136,643.0,828.0,0.1745964077699509,0.6383523513132192,0.3736103625250527,0.3,0.36242675726593804,-0.0755292673810717,-0.1469108260209128,-0.0713815586398411
187,10,17,Typical,0,Chamaeleon,Reptil,Insekt,Reptil,Reptil,1040.0,1.04,-1,106,589.0,884.0,0.1756882719131795,0.5975027640719862,0.34957499546031545,0.35,0.3349879283570035,-0.0893166669454969,-0.17286009793038884,-0.08354343098489193
188,10,18,Atypical,1,Fledermaus,Saeugetier,Vogel,Saeugetier,Saeugetier,1119.0,1.119,-1,113,612.0,791.0,0.38697879020889403,1.2527155708653588,0.6245009996024006,0.9,0.5342470259165926,-0.2714652027631275,-0.48275380249416655,-0.21128859973103903
189,10,19,Atypical,1,Wal,Saeugetier,Fisch,Saeugetier,Saeugetier,1360.0,1.36,-1,138,640.0,820.0,0.32273774509803926,1.2208526944000009,0.5265495838370291,0.9,0.41030192595470366,-0.2714652027631275,-0.48275380249416655,-0.21128859973103903
190,11,1,Typical,0,Loewe,Saeugetier,Fisch,Saeugetier,Saeugetier,1688.0,1.688,-1,170,638.0,805.0,0.22048730714856468,0.788851910700941,0.40485699048698326,0.45,0.3768772387056373,-0.11807367971552495,-0.22595127751594768,-0.10787759780042273
191,11,2,Typical,0,Chamaeleon,Insekt,Reptil,Reptil,Reptil,2528.0,2.528,1,254,641.0,835.0,0.366795142393931,0.9296723050433688,0.6887792520578376,0.55,0.66873812166909,-0.14860744469006473,-0.2805845682698002,-0.13197712357973548
192,11,3,Typical,0,Spatz,Saeugetier,Vogel,Vogel,Vogel,12432.0,12.432,1,1245,594.0,749.0,0.527039017627253,2.0364348226370375,0.9248427663778422,0.6,0.9057074468612144,-0.16457458950838247,-0.30845571585668585,-0.14388112634830338
193,11,4,Typical,0,Katze,Saeugetier,Reptil,Saeugetier,Saeugetier,1639.0,1.639,-1,165,471.0,865.0,0.26720677740310556,0.705285180467091,0.5108493755308806,0.4,0.4964634948147927,-0.10349599838173126,-0.1992018401254721,-0.09570584174374083
194,11,5,Typical,0,Lachs,Fisch,Saeugetier,Fisch,Fisch,1728.0,1.728,-1,174,501.0,833.0,0.3045947321044186,0.7914937008798396,0.5871795968940574,0.45,0.5707006784680977,-0.11807367971552495,-0.22595127751594768,-0.10787759780042273
195,11,6,Typical,0,Klapperschlange,Reptil,Amphibie,Reptil,Reptil,2463.0,2.463,-1,248,458.0,858.0,0.3480946998886891,0.8845134695965066,0.6617135848554658,0.5,0.6450109296357772,-0.13311286845349898,-0.25307847472559275,-0.11996560627209377
196,11,7,Atypical,1,Seeloewe,Fisch,Saeugetier,Saeugetier,Saeugetier,2928.0,2.928,1,294,554.0,762.0,0.7294086501026403,1.9357502796707573,1.0835886806860717,1.95,0.9012461595349455,-0.7917415667061343,-1.1618352044659443,-0.3700936377598101
197,11,8,Typical,0,Falke,Reptil,Vogel,Vogel,Vogel,2903.0,2.903,1,292,410.0,817.0,0.3572109995217599,1.8406467065756098,0.643801062632323,0.75,0.5883735260864188,-0.2155497169325335,-0.394156167395676,-0.1786064504631425
198,11,9,Typical,0,Alligator,Reptil,Saeugetier,Reptil,Reptil,1464.0,1.464,-1,148,653.0,796.0,0.15661015524126956,0.5764231342064315,0.36114054096924564,0.2,0.3559451932796465,-0.04906328648132368,-0.09625719147880524,-0.04719390499748156
199,11,10,Atypical,1,Aal,Reptil,Fisch,Fisch,Fisch,6343.0,6.343,1,636,640.0,895.0,0.931250612745098,1.7701872056000003,1.2033850846260903,2.0,0.691861430016833,-0.8207793177760799,-1.1960460819200767,-0.37526676414399673
200,11,11,Typical,0,Goldfisch,Fisch,Amphibie,Fisch,Fisch,1464.0,1.464,-1,148,620.0,779.0,0.21826110056925999,0.673914838709677,0.45866498041566856,0.3,0.44887334888427005,-0.0755292673810717,-0.1469108260209128,-0.0713815586398411
201,11,12,Atypical,1,Pinguin,Vogel,Fisch,Vogel,Vogel,1944.0,1.944,-1,196,649.0,907.0,0.11742215776911685,0.4701078582434514,0.30466282840501,0.15,0.3021116360590885,-0.036339217857283786,-0.07155591092799143,-0.03521669307070765
202,11,13,Atypical,1,Fledermaus,Vogel,Saeugetier,Saeugetier,Saeugetier,3025.0,3.025,1,304,617.0,810.0,0.3724282581752312,1.0519665478119942,0.6870993593032558,0.5,0.6676619391425195,-0.13311286845349898,-0.25307847472559275,-0.11996560627209377
203,11,14,Atypical,1,Schmetterling,Vogel,Insekt,Insekt,Insekt,2072.0,2.072,1,209,535.0,840.0,0.5477733553234378,1.6929232301457935,0.865331587959577,1.0,0.7974427607892307,-0.31160384054626533,-0.5432804372021593,-0.23167659665589402
204,11,15,Atypical,1,Wal,Saeugetier,Fisch,Saeugetier,Saeugetier,8073.0,8.073,-1,809,538.0,804.0,0.40625898389095405,0.8856575743999999,0.7701181826850292,0.5,0.75335811845742,-0.13311286845349898,-0.25307847472559275,-0.11996560627209377
205,11,16,Typical,0,Pferd,Saeugetier,Vogel,Saeugetier,Saeugetier,1768.0,1.768,-1,179,528.0,816.0,0.19549821746880566,0.5361178459151523,0.41072151223116315,0.3,0.4019858604429039,-0.0755292673810717,-0.1469108260209128,-0.0713815586398411
206,11,17,Typical,0,Kaninchen,Reptil,Saeugetier,Saeugetier,Saeugetier,1673.0,1.673,1,168,786.0,892.0,0.3593246021054731,0.9441665139949114,0.7113968064519676,0.45,0.6991338957830413,-0.11807367971552495,-0.22595127751594768,-0.10787759780042273
207,11,18,Typical,0,Hund,Saeugetier,Insekt,Saeugetier,Saeugetier,1456.0,1.456,-1,147,562.0,783.0,0.21425106412671824,0.7887470103686829,0.4450836318736968,0.35,0.43069533470678706,-0.0893166669454969,-0.17286009793038884,-0.08354343098489193
208,11,19,Typical,0,Hai,Saeugetier,Fisch,Fisch,Fisch,7728.0,7.728,1,774,790.0,1017.0,0.4550209977661951,1.0018038531240503,0.8207521104302492,0.55,0.80085124035757,-0.14860744469006473,-0.2805845682698002,-0.13197712357973548
209,12,1,Typical,0,Katze,Reptil,Saeugetier,Saeugetier,Saeugetier,2320.0,2.32,1,234,750.0,779.0,-0.11376313725490196,0.2198508544,0.38196550771887616,0.0,0.38196550771887616,0.0,0.0,0.0
210,12,2,Typical,0,Kaninchen,Saeugetier,Reptil,Saeugetier,Saeugetier,1328.0,1.328,-1,134,753.0,910.0,0.2557984532458401,0.8798057461120843,0.5127528440266464,0.45,0.4954667740111072,-0.11807367971552495,-0.22595127751594768,-0.10787759780042273
211,12,3,Typical,0,Spatz,Saeugetier,Vogel,Vogel,Vogel,1047.0,1.047,1,106,711.0,891.0,0.24813287002564735,0.734846716903517,0.49272045910443113,0.4,0.4785529073425311,-0.10349599838173126,-0.1992018401254721,-0.09570584174374083
212,12,4,Atypical,1,Pinguin,Fisch,Vogel,Vogel,Vogel,3024.0,3.024,1,304,633.0,814.0,-0.16229507790477957,0.5306530173775673,0.46381263738755957,0.0,0.46381263738755957,0.0,0.0,0.0
213,12,5,Typical,0,Hund,Saeugetier,Insekt,Saeugetier,Saeugetier,1728.0,1.728,-1,174,487.0,762.0,0.016167653098200233,0.21525100355811078,0.20689113822349292,0.1,0.20590462004152302,-0.023931874853317565,-0.04727665738328592,-0.023344782529968352
214,12,6,Typical,0,Hai,Fisch,Saeugetier,Fisch,Fisch,1896.0,1.896,-1,191,634.0,827.0,0.05385241541411517,0.39147711430662446,0.21962740962368504,0.15,0.21387617834501482,-0.036339217857283786,-0.07155591092799143,-0.03521669307070765
215,12,7,Typical,0,Chamaeleon,Reptil,Insekt,Reptil,Reptil,2112.0,2.112,-1,213,791.0,917.0,0.25080915197937576,0.841204265167131,0.5446115613737529,0.4,0.5305653395895182,-0.10349599838173126,-0.1992018401254721,-0.09570584174374083
216,12,8,Typical,0,Pferd,Saeugetier,Vogel,Saeugetier,Saeugetier,1480.0,1.48,-1,149,606.0,806.0,0.14491813887271077,0.4995189605386138,0.31079587341071285,0.55,0.25140365350976707,-0.14860744469006473,-0.2805845682698002,-0.13197712357973548
217,12,9,Atypical,1,Aal,Reptil,Fisch,Fisch,Fisch,4488.0,4.488,1,450,505.0,827.0,-0.07379677732479135,0.09325117439999998,0.204684623979113,0.0,0.204684623979113,0.0,0.0,0.0
218,12,10,Atypical,1,Seeloewe,Saeugetier,Fisch,Saeugetier,Saeugetier,1633.0,1.633,-1,165,742.0,871.0,0.22319872099783306,0.7927259650070081,0.4798172176298107,0.4,0.4654570139174893,-0.10349599838173126,-0.1992018401254721,-0.09570584174374083
219,12,11,Typical,0,Loewe,Saeugetier,Fisch,Saeugetier,Saeugetier,816.0,0.816,-1,83,682.0,865.0,0.1626075556322235,0.5758469529900292,0.3588121529183315,0.3,0.3491883269856726,-0.0755292673810717,-0.1469108260209128,-0.0713815586398411
220,12,12,Typical,0,Lachs,Saeugetier,Fisch,Fisch,Fisch,1191.0,1.191,1,121,631.0,818.0,0.13554190360771884,0.5762804500690965,0.3574812825480891,0.2,0.3521645945726054,-0.04906328648132368,-0.09625719147880524,-0.04719390499748156
222,12,14,Atypical,1,Schmetterling,Insekt,Vogel,Insekt,Insekt,2056.0,2.056,-1,207,718.0,862.0,0.09010672346933202,0.3769071293325904,0.21926461621332363,0.25,0.20905148050004843,-0.06212157856216344,-0.12137670396361751,-0.05925512540145407
223,12,15,Typical,0,Alligator,Saeugetier,Reptil,Reptil,Reptil,1744.0,1.744,1,176,688.0,921.0,0.2651363429092567,0.8827993221953482,0.5405714262360815,0.5,0.5196232955521874,-0.13311286845349898,-0.25307847472559275,-0.11996560627209377
225,12,17,Atypical,1,Wal,Fisch,Saeugetier,Saeugetier,Saeugetier,1584.0,1.584,1,160,584.0,934.0,0.5626457158205748,2.123664338235617,0.9510806233322932,1.7,0.7580099474921256,-0.6510643055038201,-0.9928470289676826,-0.3417827234638625
226,12,18,Typical,0,Goldfisch,Amphibie,Fisch,Fisch,Fisch,1209.0,1.209,1,122,872.0,963.0,0.03085784313725488,0.34417947734311916,0.2332333535564463,0.1,0.2323623419443105,-0.023931874853317565,-0.04727665738328592,-0.023344782529968352
227,12,19,Typical,0,Falke,Vogel,Reptil,Vogel,Vogel,2095.0,2.095,-1,211,645.0,893.0,-0.09379996960024324,0.4759366441674419,0.5197763265802596,0.0,0.5197763265802596,0.0,0.0,0.0
228,13,1,Atypical,1,Wal,Saeugetier,Fisch,Saeugetier,Saeugetier,2561.0,2.561,-1,257,540.0,805.0,0.4760003036904997,1.7150414814814812,0.7403195928554858,1.55,0.4847168618909277,-0.5708154219571859,-0.8932938935517054,-0.3224784715945195
229,13,2,Typical,0,Chamaeleon,Insekt,Reptil,Reptil,Reptil,2272.0,2.272,1,229,637.0,789.0,0.24535709668482777,0.9658247066725281,0.4638328837682119,0.5,0.4354327089524179,-0.13311286845349898,-0.25307847472559275,-0.11996560627209377
230,13,3,Atypical,1,Aal,Reptil,Fisch,Fisch,Fisch,4351.0,4.351,1,437,536.0,828.0,0.18584079601990047,1.8808523606925363,0.7135981291749695,0.3,0.7084842831253978,-0.0755292673810717,-0.1469108260209128,-0.0713815586398411
231,13,4,Typical,0,Katze,Saeugetier,Reptil,Saeugetier,Saeugetier,1584.0,1.584,-1,160,480.0,899.0,0.35602973856209147,1.185390407466666,0.5720859523110546,0.9,0.4736909678547766,-0.2714652027631275,-0.48275380249416655,-0.21128859973103903
232,13,5,Typical,0,Spatz,Saeugetier,Vogel,Vogel,Vogel,1736.0,1.736,1,175,657.0,801.0,0.13491234667382934,0.5934200869796041,0.32657038880687395,0.3,0.3146811606573514,-0.0755292673810717,-0.1469108260209128,-0.0713815586398411
233,13,6,Typical,0,Goldfisch,Amphibie,Fisch,Fisch,Fisch,1759.0,1.759,1,177,694.0,799.0,0.17935797027744818,0.577804956772334,0.35093692046620867,0.45,0.32680678433531896,-0.11807367971552495,-0.22595127751594768,-0.10787759780042273
234,13,7,Typical,0,Loewe,Fisch,Saeugetier,Saeugetier,Saeugetier,1240.0,1.24,1,126,555.0,834.0,0.022129659070835507,0.3211717309117116,0.16367464872209944,0.0,0.16367464872209944,0.0,0.0,0.0
235,13,8,Typical,0,Hai,Fisch,Saeugetier,Fisch,Fisch,2744.0,2.744,-1,276,590.0,792.0,0.009905217680292462,0.3920162711864407,0.23755785412238734,0.15,0.2336407208721023,-0.036339217857283786,-0.07155591092799143,-0.03521669307070765
236,13,9,Typical,0,Hund,Saeugetier,Insekt,Saeugetier,Saeugetier,1176.0,1.176,-1,119,627.0,833.0,0.1278988022641273,0.6368177754845296,0.3244484239235038,0.35,0.3040129157625428,-0.0893166669454969,-0.17286009793038884,-0.08354343098489193
237,13,10,Atypical,1,Schmetterling,Vogel,Insekt,Insekt,Insekt,1728.0,1.728,1,174,604.0,762.0,0.16597117257499022,0.5415424117827816,0.29800420429865093,0.4,0.27424805059818713,-0.10349599838173126,-0.1992018401254721,-0.09570584174374083
238,13,11,Atypical,1,Seeloewe,Fisch,Saeugetier,Saeugetier,Saeugetier,1888.0,1.888,1,190,570.0,752.0,0.1259742690058479,0.5080981582596493,0.24183112640374554,0.4,0.21192455554805475,-0.10349599838173126,-0.1992018401254721,-0.09570584174374083
239,13,12,Typical,0,Klapperschlange,Reptil,Amphibie,Reptil,Reptil,3784.0,3.784,-1,380,522.0,797.0,0.7212989257005484,1.967493498997702,1.0024030833578024,2.0,0.6116602374907705,-0.8207793177760799,-1.1960460819200767,-0.37526676414399673
240,13,13,Typical,0,Pferd,Saeugetier,Vogel,Saeugetier,Saeugetier,1464.0,1.464,-1,148,505.0,753.0,-0.04662255872646089,0.27306693842376245,0.2417449948575393,0.0,0.2417449948575393,0.0,0.0,0.0
241,13,14,Typical,0,Falke,Reptil,Vogel,Vogel,Vogel,1304.0,1.304,1,132,700.0,791.0,0.09712605042016804,0.5270714477714287,0.2129847870749422,0.35,0.18311752493852854,-0.0893166669454969,-0.17286009793038884,-0.08354343098489193
242,13,15,Atypical,1,Fledermaus,Vogel,Saeugetier,Saeugetier,Saeugetier,2703.0,2.703,1,272,610.0,787.0,0.20744390871102533,0.7491026944000009,0.35075000253871214,0.7,0.26007243559938936,-0.19802835608933766,-0.36525244431605347,-0.1672240882267158
243,13,16,Atypical,1,Pinguin,Fisch,Vogel,Vogel,Vogel,1888.0,1.888,1,190,563.0,783.0,0.10775007836171764,0.4982163215460034,0.27210905370198235,0.15,0.26797198311122905,-0.036339217857283786,-0.07155591092799143,-0.03521669307070765
244,13,17,Typical,0,Alligator,Reptil,Saeugetier,Reptil,Reptil,2688.0,2.688,-1,270,574.0,786.0,0.3681281683405069,0.9639753064362375,0.5445090189202302,0.9,0.4406025449049921,-0.2714652027631275,-0.48275380249416655,-0.21128859973103903
245,13,18,Typical,0,Lachs,Fisch,Saeugetier,Fisch,Fisch,1711.0,1.711,-1,173,393.0,790.0,0.2547212493139749,0.7820411058157763,0.41953478232350727,0.55,0.37792048740658274,-0.14860744469006473,-0.2805845682698002,-0.13197712357973548
246,13,19,Typical,0,Kaninchen,Reptil,Saeugetier,Saeugetier,Saeugetier,1496.0,1.496,1,151,677.0,763.0,0.20714513279462446,0.6523700503822756,0.37302365168178964,0.45,0.3453246924482525,-0.11807367971552495,-0.22595127751594768,-0.10787759780042273
247,14,1,Typical,0,Klapperschlange,Reptil,Amphibie,Reptil,Reptil,2304.0,2.304,-1,232,629.0,850.0,0.18251878175753605,0.575078102771383,0.339424964735452,0.35,0.31907827922530335,-0.0893166669454969,-0.17286009793038884,-0.08354343098489193
248,14,2,Typical,0,Lachs,Fisch,Saeugetier,Fisch,Fisch,2256.0,2.256,-1,227,576.0,796.0,0.15467674291938996,0.48961116995555576,0.2289001640994997,0.55,0.15073582256296636,-0.14860744469006473,-0.2805845682698002,-0.13197712357973548
249,14,3,Typical,0,Goldfisch,Fisch,Amphibie,Fisch,Fisch,1319.0,1.319,-1,133,592.0,777.0,0.15352881558028614,0.5485059459459458,0.31726123050773347,0.25,0.3084524153024911,-0.06212157856216344,-0.12137670396361751,-0.05925512540145407
250,14,4,Typical,0,Loewe,Fisch,Saeugetier,Saeugetier,Saeugetier,1248.0,1.248,1,126,567.0,787.0,0.16521700038039908,0.5642147890567899,0.3622254370149301,0.25,0.3555217514020847,-0.06212157856216344,-0.12137670396361751,-0.05925512540145407
252,14,6,Typical,0,Falke,Vogel,Reptil,Vogel,Vogel,1697.0,1.697,-1,171,582.0,866.0,0.18815558250791725,0.4637770942020618,0.2834261684740934,0.45,0.2525065417099204,-0.11807367971552495,-0.22595127751594768,-0.10787759780042273
253,14,7,Typical,0,Kaninchen,Reptil,Saeugetier,Saeugetier,Saeugetier,2864.0,2.864,1,288,497.0,780.0,0.8847123525466524,2.13713049030825,1.2085931999312178,2.0,0.8723850575958024,-0.8207793177760799,-1.1960460819200767,-0.37526676414399673
254,14,8,Atypical,1,Fledermaus,Vogel,Saeugetier,Saeugetier,Saeugetier,2408.0,2.408,1,242,432.0,737.0,0.692252723311547,2.0856671803259252,1.074104737216913,1.3,0.971395293776934,-0.4454618622396509,-0.7309665403174328,-0.2855046780777819
255,14,9,Typical,0,Hund,Saeugetier,Insekt,Saeugetier,Saeugetier,2015.0,2.015,-1,203,566.0,916.0,0.32893404004711424,1.2566277975745588,0.6154519907065712,0.55,0.5902963819785972,-0.14860744469006473,-0.2805845682698002,-0.13197712357973548
256,14,10,Typical,0,Spatz,Saeugetier,Vogel,Vogel,Vogel,1632.0,1.632,1,165,600.0,796.0,0.30069071895424837,0.8496737407999994,0.5755526147794451,0.45,0.5585964042875639,-0.11807367971552495,-0.22595127751594768,-0.10787759780042273
257,14,11,Typical,0,Pferd,Vogel,Saeugetier,Saeugetier,Saeugetier,1680.0,1.68,1,170,586.0,769.0,0.2928635481496353,1.0135279851904437,0.5050864925697074,0.65,0.45465955966832244,-0.18104253713442486,-0.33667875115684626,-0.1556362140224214
259,14,13,Atypical,1,Wal,Fisch,Saeugetier,Saeugetier,Saeugetier,2167.0,2.167,1,218,573.0,854.0,0.3925019334086164,1.5229011965766142,0.6349099724690042,1.15,0.4772868195765681,-0.3760872184762007,-0.6360519323217316,-0.25996471384553094
260,14,14,Atypical,1,Seeloewe,Saeugetier,Fisch,Saeugetier,Saeugetier,1872.0,1.872,-1,189,625.0,763.0,0.10541440000000002,0.5038436608,0.34646622869728544,0.1,0.3454973704723455,-0.023931874853317565,-0.04727665738328592,-0.023344782529968352
261,14,15,Typical,0,Chamaeleon,Insekt,Reptil,Reptil,Reptil,1697.0,1.697,1,171,538.0,782.0,0.2892926598148553,0.8176449070631966,0.5470912686429783,0.45,0.5300825256982934,-0.11807367971552495,-0.22595127751594768,-0.10787759780042273
262,14,16,Typical,0,Hai,Fisch,Saeugetier,Fisch,Fisch,2240.0,2.24,-1,226,555.0,811.0,0.2342547253135488,0.7753203167711712,0.48312842021471836,0.4,0.4679539353556553,-0.10349599838173126,-0.1992018401254721,-0.09570584174374083
263,14,17,Typical,0,Alligator,Saeugetier,Reptil,Reptil,Reptil,1912.0,1.912,1,194,537.0,752.0,0.2234758096907291,0.8789531431091246,0.4242068678618917,0.6,0.36973681210672305,-0.16457458950838247,-0.30845571585668585,-0.14388112634830338
264,14,18,Atypical,1,Schmetterling,Vogel,Insekt,Insekt,Insekt,3177.0,3.177,1,319,541.0,834.0,0.5009873509477728,1.8165872828096115,0.8136231434960198,1.4,0.6327655823059872,-0.49424134130015374,-0.7953172793357874,-0.3010759380356337
265,14,19,Atypical,1,Pinguin,Vogel,Fisch,Vogel,Vogel,1671.0,1.671,-1,169,590.0,782.0,0.25554170820870714,0.6367889950372874,0.47450565295420355,0.45,0.4533365074576533,-0.11807367971552495,-0.22595127751594768,-0.10787759780042273
266,15,1,Typical,0,Spatz,Saeugetier,Vogel,Vogel,Vogel,1760.0,1.76,1,178,680.0,793.0,0.3138892733564013,0.8801869861647058,0.6177057749393637,0.45,0.6008519147012191,-0.11807367971552495,-0.22595127751594768,-0.10787759780042273
267,15,2,Typical,0,Katze,Saeugetier,Reptil,Saeugetier,Saeugetier,1168.0,1.168,-1,118,534.0,784.0,0.16894910773298083,0.5675794908044944,0.3164103200087051,0.35,0.2994971292651009,-0.0893166669454969,-0.17286009793038884,-0.08354343098489193
268,15,3,Atypical,1,Wal,Saeugetier,Fisch,Saeugetier,Saeugetier,4065.0,4.065,-1,408,556.0,828.0,0.8991335167160388,2.236771256771222,1.2838059783168727,2.0,1.0174622715514514,-0.8207793177760799,-1.1960460819200767,-0.37526676414399673
269,15,4,Typical,0,Pferd,Saeugetier,Vogel,Saeugetier,Saeugetier,1768.0,1.768,-1,179,545.0,833.0,0.0016813095880553713,0.2828154714422019,0.2556321302206954,0.15,0.2515398038006301,-0.036339217857283786,-0.07155591092799143,-0.03521669307070765
271,15,6,Typical,0,Loewe,Fisch,Saeugetier,Saeugetier,Saeugetier,1330.0,1.33,1,135,673.0,866.0,0.27029979896862155,0.8263702228826147,0.5487148906682409,0.45,0.5334376873540109,-0.11807367971552495,-0.22595127751594768,-0.10787759780042273
272,15,7,Typical,0,Chamaeleon,Reptil,Insekt,Reptil,Reptil,1768.0,1.768,-1,178,573.0,902.0,0.2259517503336413,0.570659671991623,0.3739412130205103,0.45,0.3495302723994841,-0.11807367971552495,-0.22595127751594768,-0.10787759780042273
273,15,8,Typical,0,Klapperschlange,Reptil,Amphibie,Reptil,Reptil,3599.0,3.599,-1,361,576.0,817.0,0.851079861111111,2.0535148814222213,1.2057515806777994,2.0,0.9087467003934574,-0.8207793177760799,-1.1960460819200767,-0.37526676414399673
274,15,9,Typical,0,Kaninchen,Reptil,Saeugetier,Saeugetier,Saeugetier,1160.0,1.16,1,117,663.0,793.0,0.26772720551267265,0.8245566970594261,0.5088276915093582,0.45,0.4882111097392164,-0.11807367971552495,-0.22595127751594768,-0.10787759780042273
275,15,10,Typical,0,Lachs,Fisch,Saeugetier,Fisch,Fisch,1184.0,1.184,-1,120,547.0,871.0,0.24627522672688817,0.7584599317060329,0.4983188957348864,0.45,0.48210514998872983,-0.11807367971552495,-0.22595127751594768,-0.10787759780042273
277,15,12,Typical,0,Goldfisch,Fisch,Amphibie,Fisch,Fisch,1176.0,1.176,-1,119,550.0,813.0,0.2096772905525846,0.7131826944000008,0.4321761829495109,0.35,0.41831238993545006,-0.0893166669454969,-0.17286009793038884,-0.08354343098489193
278,15,13,Atypical,1,Aal,Fisch,Reptil,Fisch,Fisch,2168.0,2.168,-1,218,590.0,786.0,0.24988288467929537,0.7498440608542373,0.46477534819803956,0.4,0.448974352566775,-0.10349599838173126,-0.1992018401254721,-0.09570584174374083
279,15,14,Typical,0,Alligator,Saeugetier,Reptil,Reptil,Reptil,1720.0,1.72,1,174,592.0,803.0,0.2876960784313725,0.8549873143351355,0.5816860307211402,0.45,0.5658565123327507,-0.11807367971552495,-0.22595127751594768,-0.10787759780042273
280,15,15,Typical,0,Hai,Saeugetier,Fisch,Fisch,Fisch,1352.0,1.352,1,137,559.0,826.0,0.22900655933214067,0.73016888402433,0.46031494150259133,0.35,0.44563169829592797,-0.0893166669454969,-0.17286009793038884,-0.08354343098489193
281,15,16,Atypical,1,Schmetterling,Insekt,Vogel,Insekt,Insekt,2896.0,2.896,-1,291,524.0,835.0,0.35005298607992813,0.9420800000000005,0.671336065370761,0.5,0.65363969767633,-0.13311286845349898,-0.25307847472559275,-0.11996560627209377
282,15,17,Atypical,1,Fledermaus,Saeugetier,Vogel,Saeugetier,Saeugetier,2440.0,2.44,-1,245,548.0,788.0,0.3154959209961356,0.9153472426978092,0.6371192782367087,0.45,0.620900546566753,-0.11807367971552495,-0.22595127751594768,-0.10787759780042273
283,15,18,Typical,0,Falke,Reptil,Vogel,Vogel,Vogel,1288.0,1.288,1,130,498.0,869.0,0.24105614615324042,0.7344520919903623,0.46951531199825247,0.45,0.45282603425349444,-0.11807367971552495,-0.22595127751594768,-0.10787759780042273
284,15,19,Typical,0,Hund,Insekt,Saeugetier,Saeugetier,Saeugetier,1416.0,1.416,1,143,642.0,814.0,0.3844622808625007,1.3510562953171332,0.6178595074679348,0.85,0.5371920234919632,-0.2522504086137768,-0.4529166841723562,-0.2006662755585794
285,16,1,Typical,0,Katze,Saeugetier,Reptil,Saeugetier,Saeugetier,3799.0,3.799,-1,381,671.0,832.0,0.31962274626691206,1.0197284686402388,0.5094273037786368,0.9,0.38927152699522877,-0.2714652027631275,-0.48275380249416655,-0.21128859973103903
286,16,2,Typical,0,Spatz,Saeugetier,Vogel,Vogel,Vogel,2463.0,2.463,1,248,461.0,785.0,0.2362368253158096,0.8130399013206063,0.42301652329135936,0.5,0.39110359914031323,-0.13311286845349898,-0.25307847472559275,-0.11996560627209377
287,16,3,Typical,0,Pferd,Saeugetier,Vogel,Saeugetier,Saeugetier,2473.0,2.473,-1,249,687.0,760.0,0.20225413134686182,1.7250952837403193,0.6007535454674774,0.7,0.553346602871156,-0.19802835608933766,-0.36525244431605347,-0.1672240882267158
288,16,4,Typical,0,Hund,Saeugetier,Insekt,Saeugetier,Saeugetier,1495.0,1.495,-1,151,644.0,830.0,-0.054504018998903926,0.2747639927254659,0.2700747147686603,0.0,0.2700747147686603,0.0,0.0,0.0
289,16,5,Typical,0,Hai,Saeugetier,Fisch,Fisch,Fisch,2408.0,2.408,1,242,468.0,902.0,0.13598692810457513,0.6911070085470081,0.2538969119974687,0.55,0.17218819311721484,-0.14860744469006473,-0.2805845682698002,-0.13197712357973548
291,16,7,Typical,0,Chamaeleon,Reptil,Insekt,Reptil,Reptil,1823.0,1.823,-1,184,555.0,803.0,0.0946959194488606,0.3676509171315314,0.2108778884961476,0.15,0.20639657053502142,-0.036339217857283786,-0.07155591092799143,-0.03521669307070765
292,16,8,Atypical,1,Fledermaus,Saeugetier,Vogel,Saeugetier,Saeugetier,3145.0,3.145,-1,316,584.0,780.0,0.5921162369057211,1.8484269077917816,0.9340903648608879,1.5,0.7580779124767291,-0.5448638768188296,-0.8604512930902888,-0.31558741627145914
293,16,9,Typical,0,Klapperschlange,Amphibie,Reptil,Reptil,Reptil,3240.0,3.24,1,325,665.0,767.0,0.14504319622585873,0.7376220811548873,0.38586206067407086,0.25,0.3787284108928887,-0.06212157856216344,-0.12137670396361751,-0.05925512540145407
294,16,10,Atypical,1,Schmetterling,Vogel,Insekt,Insekt,Insekt,2071.0,2.071,1,209,677.0,842.0,0.45794137921047284,1.1758793670333816,0.7042859910549385,1.0,0.6131688857575397,-0.31160384054626533,-0.5432804372021593,-0.23167659665589402
295,16,11,Typical,0,Alligator,Reptil,Saeugetier,Reptil,Reptil,1600.0,1.6,-1,162,589.0,816.0,-0.002886247877758936,0.317226247519185,0.2108639847687767,0.0,0.2108639847687767,0.0,0.0,0.0
298,16,14,Atypical,1,Pinguin,Vogel,Fisch,Vogel,Vogel,1704.0,1.704,-1,172,670.0,813.0,-0.003775007316359388,0.26443398438208965,0.1853411956482412,0.0,0.1853411956482412,0.0,0.0,0.0
300,16,16,Typical,0,Loewe,Fisch,Saeugetier,Saeugetier,Saeugetier,1681.0,1.681,1,170,432.0,786.0,0.5751549564270152,2.081356296296296,0.9484734715656087,1.95,0.6687664555484043,-0.7917415667061343,-1.1618352044659443,-0.3700936377598101
301,16,17,Typical,0,Goldfisch,Fisch,Amphibie,Fisch,Fisch,3575.0,3.575,-1,359,622.0,796.0,-0.21667454763255786,0.07660138301736263,0.49438415373462213,0.0,0.49438415373462213,0.0,0.0,0.0
302,16,18,Typical,0,Kaninchen,Reptil,Saeugetier,Saeugetier,Saeugetier,2415.0,2.415,1,243,466.0,790.0,0.04470125389211477,0.3482484937064377,0.1340234783520988,0.1,0.1299037852537722,-0.023931874853317565,-0.04727665738328592,-0.023344782529968352
303,16,19,Typical,0,Lachs,Saeugetier,Fisch,Fisch,Fisch,1488.0,1.488,1,150,465.0,807.0,0.5522535104364326,1.5666666666666667,0.834502853564241,1.75,0.584850180511862,-0.678552396000428,-1.0263528241060489,-0.34780042810562084
304,17,1,Typical,0,Loewe,Saeugetier,Fisch,Saeugetier,Saeugetier,1720.0,1.72,-1,173,716.0,898.0,0.19846478256106911,0.6294770167418984,0.43041142108607966,0.15,0.4280606783141169,-0.036339217857283786,-0.07155591092799143,-0.03521669307070765
305,17,2,Atypical,1,Fledermaus,Saeugetier,Vogel,Saeugetier,Saeugetier,2472.0,2.472,-1,249,577.0,837.0,0.33509348557447244,0.9338304332755637,0.6557759389618988,0.5,0.6382473011379642,-0.13311286845349898,-0.25307847472559275,-0.11996560627209377
306,17,3,Typical,0,Lachs,Fisch,Saeugetier,Fisch,Fisch,1192.0,1.192,-1,121,670.0,818.0,0.2720243488440152,0.8356065671641787,0.5539478966272663,0.45,0.5379461741613453,-0.11807367971552495,-0.22595127751594768,-0.10787759780042273
307,17,4,Atypical,1,Seeloewe,Saeugetier,Fisch,Saeugetier,Saeugetier,2064.0,2.064,-1,208,679.0,927.0,0.36223823962574725,0.9420800000000005,0.7048086906915515,0.5,0.6873850059307239,-0.13311286845349898,-0.25307847472559275,-0.11996560627209377
308,17,5,Atypical,1,Aal,Reptil,Fisch,Fisch,Fisch,4600.0,4.6,1,462,719.0,895.0,0.4364913141890969,0.9954747391999996,0.8019554980636698,0.55,0.7839505496460901,-0.14860744469006473,-0.2805845682698002,-0.13197712357973548
309,17,6,Typical,0,Chamaeleon,Reptil,Insekt,Reptil,Reptil,2191.0,2.191,-1,221,648.0,900.0,0.25075774630839986,0.86119168537284,0.5675750659483753,0.4,0.5557218325920268,-0.10349599838173126,-0.1992018401254721,-0.09570584174374083
310,17,7,Typical,0,Alligator,Reptil,Saeugetier,Reptil,Reptil,1512.0,1.512,-1,153,405.0,821.0,0.3246038247397724,0.9222154922666673,0.6227649440211203,0.5,0.601728401771451,-0.13311286845349898,-0.25307847472559275,-0.11996560627209377
311,17,8,Typical,0,Kaninchen,Reptil,Saeugetier,Saeugetier,Saeugetier,1424.0,1.424,1,143,558.0,825.0,0.3491120950172183,1.0588762123928315,0.6086120605421977,0.55,0.582619493478761,-0.14860744469006473,-0.2805845682698002,-0.13197712357973548
312,17,9,Typical,0,Goldfisch,Amphibie,Fisch,Fisch,Fisch,1520.0,1.52,1,154,755.0,878.0,0.3470920659654589,1.003437567321855,0.618494905556629,0.55,0.5944626071443281,-0.14860744469006473,-0.2805845682698002,-0.13197712357973548
313,17,10,Typical,0,Pferd,Vogel,Saeugetier,Saeugetier,Saeugetier,1639.0,1.639,1,165,862.0,795.0,0.30862212820162865,0.876498245553597,0.6089183790550404,0.45,0.5932937029317504,-0.11807367971552495,-0.22595127751594768,-0.10787759780042273
314,17,11,Atypical,1,Schmetterling,Vogel,Insekt,Insekt,Insekt,2072.0,2.072,1,209,723.0,897.0,0.36646445908930647,0.9462293775933615,0.6722869727282492,0.5,0.6521837649251178,-0.13311286845349898,-0.25307847472559275,-0.11996560627209377
315,17,12,Typical,0,Falke,Vogel,Reptil,Vogel,Vogel,4264.0,4.264,-1,428,489.0,855.0,0.39733349372468824,0.977746366874437,0.7202022825435329,0.55,0.699269958104401,-0.14860744469006473,-0.2805845682698002,-0.13197712357973548
316,17,13,Atypical,1,Pinguin,Vogel,Fisch,Vogel,Vogel,2832.0,2.832,-1,285,767.0,860.0,0.2876660275583505,0.9229586588704032,0.6373752159549455,0.45,0.6222114069554872,-0.11807367971552495,-0.22595127751594768,-0.10787759780042273
317,17,14,Atypical,1,Wal,Saeugetier,Fisch,Saeugetier,Saeugetier,1440.0,1.44,-1,146,546.0,870.0,0.2609121597356891,0.8237331868131862,0.533773693285038,0.45,0.5185970225532257,-0.11807367971552495,-0.22595127751594768,-0.10787759780042273
318,17,15,Typical,0,Katze,Reptil,Saeugetier,Saeugetier,Saeugetier,992.0,0.992,1,101,739.0,932.0,0.2403679588208761,0.7501951537190799,0.4834881671169184,0.45,0.46764521140284526,-0.11807367971552495,-0.22595127751594768,-0.10787759780042273
320,17,17,Typical,0,Hund,Saeugetier,Insekt,Saeugetier,Saeugetier,1376.0,1.376,-1,139,589.0,834.0,0.4055976563800393,1.2761749716101876,0.6525850549453677,0.7,0.6074274076409903,-0.19802835608933766,-0.36525244431605347,-0.1672240882267158
321,17,18,Typical,0,Spatz,Vogel,Saeugetier,Vogel,Vogel,1504.0,1.504,-1,152,579.0,872.0,0.3128234616817366,0.9067488256000007,0.6175251902653217,0.45,0.6003324444155431,-0.11807367971552495,-0.22595127751594768,-0.10787759780042273
322,17,19,Typical,0,Hai,Saeugetier,Fisch,Fisch,Fisch,1488.0,1.488,1,150,461.0,888.0,0.2945761558419463,1.142429761388286,0.5365907920759168,0.55,0.5066130241296194,-0.14860744469006473,-0.2805845682698002,-0.13197712357973548
323,18,1,Typical,0,Hund,Insekt,Saeugetier,Saeugetier,Saeugetier,1336.0,1.336,1,135,735.0,861.0,0.04924892623716152,0.44447195358911556,0.2596838578216,0.2,0.2539972452585589,-0.04906328648132368,-0.09625719147880524,-0.04719390499748156
324,18,2,Typical,0,Lachs,Fisch,Saeugetier,Fisch,Fisch,1304.0,1.304,-1,132,594.0,808.0,0.21631161286063244,0.916436450176431,0.36257588136491886,0.65,0.2849186747108941,-0.18104253713442486,-0.33667875115684626,-0.1556362140224214
325,18,3,Atypical,1,Aal,Reptil,Fisch,Fisch,Fisch,1456.0,1.456,1,147,637.0,778.0,0.32981352541016407,1.4152559497645207,0.7309819498553056,1.35,0.5282942581938588,-0.46961262012229177,-0.7630399249225222,-0.2934273048002304
326,18,4,Typical,0,Klapperschlange,Amphibie,Reptil,Reptil,Reptil,2303.0,2.303,1,232,578.0,874.0,0.5982048985684238,1.8845713494809693,1.069801583816408,2.0,0.8168445938988791,-0.8207793177760799,-1.1960460819200767,-0.37526676414399673
327,18,5,Typical,0,Alligator,Saeugetier,Reptil,Reptil,Reptil,1552.0,1.552,1,157,791.0,877.0,0.08571022037133437,0.4835651074589128,0.2452798184379862,0.25,0.23516234495908697,-0.06212157856216344,-0.12137670396361751,-0.05925512540145407
328,18,6,Typical,0,Spatz,Vogel,Saeugetier,Vogel,Vogel,1632.0,1.632,-1,165,498.0,918.0,0.3610129931490668,1.3800440219244972,0.6160543259524744,0.8,0.5495668838792273,-0.2336201591836461,-0.4233813704023257,-0.18976121121867962
329,18,7,Typical,0,Falke,Reptil,Vogel,Vogel,Vogel,1391.0,1.391,1,141,785.0,915.0,0.06415236667915572,0.42864443939872604,0.2644969822806755,0.15,0.2608909493901651,-0.036339217857283786,-0.07155591092799143,-0.03521669307070765
330,18,8,Typical,0,Chamaeleon,Reptil,Insekt,Reptil,Reptil,2024.0,2.024,-1,204,660.0,841.0,0.13763042186571595,0.642380872921212,0.3446667709105941,0.3,0.3341003723099363,-0.0755292673810717,-0.1469108260209128,-0.0713815586398411
332,18,10,Typical,0,Pferd,Saeugetier,Vogel,Saeugetier,Saeugetier,1808.0,1.808,-1,182,502.0,863.0,0.33987969689867975,1.8180496606342629,0.6615420415077814,1.15,0.5136094012258541,-0.3760872184762007,-0.6360519323217316,-0.25996471384553094
333,18,11,Atypical,1,Seeloewe,Fisch,Saeugetier,Saeugetier,Saeugetier,1608.0,1.608,1,162,604.0,916.0,0.1513115179846773,0.5233693561218543,0.3503940553743865,0.25,0.3423888975677583,-0.06212157856216344,-0.12137670396361751,-0.05925512540145407
334,18,12,Typical,0,Loewe,Fisch,Saeugetier,Saeugetier,Saeugetier,1127.0,1.127,1,114,552.0,930.0,0.20596874111963628,0.637161449275362,0.44346961563272963,0.3,0.4337129422338442,-0.0755292673810717,-0.1469108260209128,-0.0713815586398411
335,18,13,Typical,0,Kaninchen,Reptil,Saeugetier,Saeugetier,Saeugetier,1504.0,1.504,1,152,717.0,897.0,0.04944403423852105,0.4598326359832636,0.29021865791341017,0.1,0.28932597751922473,-0.023931874853317565,-0.04727665738328592,-0.023344782529968352
336,18,14,Atypical,1,Pinguin,Fisch,Vogel,Vogel,Vogel,2128.0,2.128,1,214,506.0,825.0,-0.09975137564907387,0.11524465874466402,0.25149563944299347,0.0,0.25149563944299347,0.0,0.0,0.0
337,18,15,Typical,0,Katze,Saeugetier,Reptil,Saeugetier,Saeugetier,1048.0,1.048,-1,106,628.0,877.0,0.19535806169601597,0.6126555414012735,0.40619187482374447,0.35,0.3932961794168086,-0.0893166669454969,-0.17286009793038884,-0.08354343098489193
338,18,16,Typical,0,Goldfisch,Amphibie,Fisch,Fisch,Fisch,977.0,0.977,1,99,558.0,860.0,0.07170363342469603,0.40310628904372753,0.26346695095345724,0.05,0.2629913477137364,-0.011823423130533217,-0.023424189735792297,-0.01160076660525908
339,18,17,Atypical,1,Fledermaus,Saeugetier,Vogel,Saeugetier,Saeugetier,3624.0,3.624,-1,364,620.0,851.0,0.8875448450347883,1.9110500917677409,1.1707326790187664,2.0,0.6910717402742218,-0.8207793177760799,-1.1960460819200767,-0.37526676414399673
340,18,18,Atypical,1,Wal,Fisch,Saeugetier,Saeugetier,Saeugetier,1159.0,1.159,1,117,564.0,1012.0,0.2100452649144764,0.6492621276595741,0.4594163748432136,0.3,0.4500741408889003,-0.0755292673810717,-0.1469108260209128,-0.0713815586398411
341,18,19,Atypical,1,Schmetterling,Vogel,Insekt,Insekt,Insekt,1905.0,1.905,1,192,593.0,803.0,0.08646728168501801,0.3003140111541315,0.19584823861083198,0.1,0.19314787622579055,-0.023931874853317565,-0.04727665738328592,-0.023344782529968352
342,19,1,Typical,0,Lachs,Saeugetier,Fisch,Fisch,Fisch,1263.0,1.263,1,128,596.0,840.0,0.21389570996183713,0.6521237583892615,0.41649366967052304,0.35,0.40340249789131194,-0.0893166669454969,-0.17286009793038884,-0.08354343098489193
343,19,2,Typical,0,Klapperschlange,Reptil,Amphibie,Reptil,Reptil,3480.0,3.48,-1,350,541.0,894.0,0.5331093472509151,1.9752945076288344,0.8196966892490973,1.05,0.7347659661614855,-0.33253106914623176,-0.5739500230282262,-0.2414189538819944
344,19,3,Atypical,1,Fledermaus,Vogel,Saeugetier,Saeugetier,Saeugetier,1863.0,1.863,1,188,652.0,980.0,0.32585877541200525,0.8830134026208588,0.619115393832269,0.5,0.6016283340771591,-0.13311286845349898,-0.25307847472559275,-0.11996560627209377
345,19,4,Atypical,1,Seeloewe,Saeugetier,Fisch,Saeugetier,Saeugetier,1792.0,1.792,-1,181,651.0,825.0,0.2130140658413903,0.7184728940927811,0.4746981135605042,0.3,0.46486831437187504,-0.0755292673810717,-0.1469108260209128,-0.0713815586398411
346,19,5,Atypical,1,Pinguin,Fisch,Vogel,Vogel,Vogel,1136.0,1.136,1,115,563.0,869.0,0.12478570682269353,0.3408453166380106,0.21086460101885882,0.25,0.19706588082082135,-0.06212157856216344,-0.12137670396361751,-0.05925512540145407
347,19,6,Typical,0,Pferd,Vogel,Saeugetier,Saeugetier,Saeugetier,1200.0,1.2,1,121,600.0,852.0,0.27860130718954246,0.7664824789333332,0.5179474282665618,0.45,0.4994495648328201,-0.11807367971552495,-0.22595127751594768,-0.10787759780042273
349,19,8,Typical,0,Kaninchen,Reptil,Saeugetier,Saeugetier,Saeugetier,1144.0,1.144,1,116,607.0,885.0,0.19548625512808085,0.6198484581640855,0.4106773463597337,0.3,0.4002461400149178,-0.0755292673810717,-0.1469108260209128,-0.0713815586398411
350,19,9,Atypical,1,Aal,Fisch,Reptil,Fisch,Fisch,1224.0,1.224,-1,124,530.0,829.0,0.1466110247872734,0.47132075471698115,0.33018050526846354,0.2,0.3254923483169184,-0.04906328648132368,-0.09625719147880524,-0.04719390499748156
351,19,10,Typical,0,Goldfisch,Fisch,Amphibie,Fisch,Fisch,1231.0,1.231,-1,125,750.0,861.0,0.17321856209150324,0.6067103274666666,0.39096041100322826,0.25,0.38239063410905,-0.06212157856216344,-0.12137670396361751,-0.05925512540145407
352,19,11,Typical,0,Katze,Reptil,Saeugetier,Saeugetier,Saeugetier,1448.0,1.448,1,146,556.0,896.0,0.2672977853011708,0.7524369153841727,0.496043833497863,0.45,0.47744560122805163,-0.11807367971552495,-0.22595127751594768,-0.10787759780042273
353,19,12,Typical,0,Chamaeleon,Reptil,Insekt,Reptil,Reptil,1120.0,1.12,-1,114,786.0,913.0,0.21113007034875017,0.6520256488549614,0.4225133344417497,0.35,0.40843066278644896,-0.0893166669454969,-0.17286009793038884,-0.08354343098489193
354,19,13,Typical,0,Alligator,Reptil,Saeugetier,Reptil,Reptil,1679.0,1.679,-1,169,588.0,846.0,0.29612898492730416,0.7341117306340136,0.5552718475201922,0.45,0.5382985911454929,-0.11807367971552495,-0.22595127751594768,-0.10787759780042273
355,19,14,Atypical,1,Schmetterling,Vogel,Insekt,Insekt,Insekt,1424.0,1.424,1,144,643.0,889.0,0.1343280578172171,0.3842569325884914,0.2528257727344946,0.2,0.24522390415452378,-0.04906328648132368,-0.09625719147880524,-0.04719390499748156
356,19,15,Typical,0,Loewe,Fisch,Saeugetier,Saeugetier,Saeugetier,1496.0,1.496,1,151,596.0,907.0,0.17149705104738658,0.5401778688234291,0.36277897047077157,0.3,0.35246120130828545,-0.0755292673810717,-0.1469108260209128,-0.0713815586398411
357,19,16,Atypical,1,Wal,Fisch,Saeugetier,Saeugetier,Saeugetier,3631.0,3.631,1,365,536.0,907.0,0.5040901375475563,1.864874748752238,0.8419399120052584,1.15,0.7354745932131161,-0.3760872184762007,-0.6360519323217316,-0.25996471384553094
358,19,17,Typical,0,Hund,Insekt,Saeugetier,Saeugetier,Saeugetier,1171.0,1.171,1,119,593.0,854.0,0.15330569057302512,0.503503864056661,0.32141739878152675,0.25,0.314759328998698,-0.06212157856216344,-0.12137670396361751,-0.05925512540145407
359,19,18,Typical,0,Spatz,Saeugetier,Vogel,Vogel,Vogel,1303.0,1.303,1,132,747.0,1018.0,0.30864083786124885,0.8091020615796515,0.5794024190745469,0.45,0.5616487416580321,-0.11807367971552495,-0.22595127751594768,-0.10787759780042273
360,19,19,Typical,0,Falke,Vogel,Reptil,Vogel,Vogel,1096.0,1.096,-1,111,601.0,875.0,0.16227398779811428,0.5933099103840265,0.37500682768788013,0.25,0.3679948619593607,-0.06212157856216344,-0.12137670396361751,-0.05925512540145407
361,20,1,Typical,0,Katze,Reptil,Saeugetier,Saeugetier,Saeugetier,1224.0,1.224,1,124,759.0,809.0,0.11108393396884444,0.693615128520685,0.346460212489644,0.2,0.3406661322352572,-0.04906328648132368,-0.09625719147880524,-0.04719390499748156
362,20,2,Typical,0,Hund,Saeugetier,Insekt,Saeugetier,Saeugetier,1151.0,1.151,-1,117,620.0,807.0,0.08445648323845666,0.5658709369806453,0.3220582106526886,0.1,0.32047693294645146,-0.023931874853317565,-0.04727665738328592,-0.023344782529968352
363,20,3,Typical,0,Lachs,Saeugetier,Fisch,Fisch,Fisch,1272.0,1.272,1,129,537.0,881.0,0.3966052506663745,1.6337170204841711,0.6798988636881841,0.75,0.6289463897423708,-0.2155497169325335,-0.394156167395676,-0.1786064504631425
364,20,4,Typical,0,Chamaeleon,Reptil,Insekt,Reptil,Reptil,1352.0,1.352,-1,137,553.0,891.0,0.16873538276069916,0.6623068354430377,0.4147304593460116,0.3,0.4052826584789132,-0.0755292673810717,-0.1469108260209128,-0.0713815586398411
365,20,5,Typical,0,Pferd,Saeugetier,Vogel,Saeugetier,Saeugetier,1175.0,1.175,-1,119,589.0,889.0,0.257525217217617,0.8362988681344644,0.5342261224051821,0.45,0.518080306013406,-0.11807367971552495,-0.22595127751594768,-0.10787759780042273
366,20,6,Atypical,1,Pinguin,Fisch,Vogel,Vogel,Vogel,1472.0,1.472,1,149,571.0,818.0,-0.021921637306411206,0.28542598949211906,0.216138586430918,0.0,0.216138586430918,0.0,0.0,0.0
367,20,7,Atypical,1,Schmetterling,Insekt,Vogel,Insekt,Insekt,1464.0,1.464,-1,148,572.0,839.0,0.4605325654737419,1.4678397346909098,0.7141419960499173,0.95,0.6344291783390449,-0.291243339592168,-0.5128773459736399,-0.22163400638147185
368,20,8,Atypical,1,Fledermaus,Vogel,Saeugetier,Saeugetier,Saeugetier,2456.0,2.456,1,247,637.0,930.0,0.1330694739434235,0.5668438797061226,0.3182195931254513,0.15,0.3152251031724502,-0.036339217857283786,-0.07155591092799143,-0.03521669307070765
369,20,9,Atypical,1,Aal,Fisch,Reptil,Fisch,Fisch,1272.0,1.272,-1,129,518.0,848.0,0.2052029676735559,0.704362581053282,0.45074261634084595,0.35,0.43946349143305863,-0.0893166669454969,-0.17286009793038884,-0.08354343098489193
370,20,10,Typical,0,Hai,Fisch,Saeugetier,Fisch,Fisch,2384.0,2.384,-1,240,509.0,906.0,1.0548555799530028,2.2333064116557946,1.394967063605739,2.0,0.9655950309915974,-0.8207793177760799,-1.1960460819200767,-0.37526676414399673
371,20,11,Typical,0,Goldfisch,Fisch,Amphibie,Fisch,Fisch,1519.0,1.519,-1,153,616.0,864.0,0.15069894321364904,0.6904248836155845,0.4299357423568919,0.2,0.4251695309474137,-0.04906328648132368,-0.09625719147880524,-0.04719390499748156
372,20,12,Typical,0,Kaninchen,Reptil,Saeugetier,Saeugetier,Saeugetier,1120.0,1.12,1,114,643.0,865.0,0.15931021864422287,0.5864790979483668,0.3535214904427882,0.25,0.3461635350126948,-0.06212157856216344,-0.12137670396361751,-0.05925512540145407
373,20,13,Atypical,1,Wal,Saeugetier,Fisch,Saeugetier,Saeugetier,1304.0,1.304,-1,132,842.0,861.0,0.2779896604722649,0.8138796199524937,0.5701850085622222,0.45,0.5555429261723479,-0.11807367971552495,-0.22595127751594768,-0.10787759780042273
374,20,14,Typical,0,Klapperschlange,Reptil,Amphibie,Reptil,Reptil,2023.0,2.023,-1,204,567.0,861.0,-0.12357914029809457,0.1712246718984128,0.34267436195584533,0.0,0.34267436195584533,0.0,0.0,0.0
375,20,15,Typical,0,Alligator,Reptil,Saeugetier,Reptil,Reptil,1352.0,1.352,-1,137,568.0,876.0,0.2184631317315658,0.7015938062422536,0.46381983719360803,0.35,0.45240566129417403,-0.0893166669454969,-0.17286009793038884,-0.08354343098489193
376,20,16,Typical,0,Loewe,Saeugetier,Fisch,Saeugetier,Saeugetier,1040.0,1.04,-1,106,606.0,904.0,0.13240924092409237,0.5772992530587457,0.3655188883098158,0.25,0.3576766517601311,-0.06212157856216344,-0.12137670396361751,-0.05925512540145407
377,20,17,Typical,0,Spatz,Saeugetier,Vogel,Vogel,Vogel,1135.0,1.135,1,115,624.0,834.0,0.0596292106586224,0.42215536541538456,0.2245905140270488,0.1,0.22364426399501094,-0.023931874853317565,-0.04727665738328592,-0.023344782529968352
378,20,18,Atypical,1,Seeloewe,Saeugetier,Fisch,Saeugetier,Saeugetier,1695.0,1.695,-1,171,594.0,927.0,0.33068264342774145,1.7555367043878793,0.7255026735833519,0.8,0.6708013332920089,-0.2336201591836461,-0.4233813704023257,-0.18976121121867962
379,20,19,Typical,0,Falke,Reptil,Vogel,Vogel,Vogel,1376.0,1.376,1,139,553.0,960.0,0.27266475197674006,0.8070465822784806,0.546515693149391,0.45,0.5315181465572462,-0.11807367971552495,-0.22595127751594768,-0.10787759780042273
380,21,1,Typical,0,Goldfisch,Amphibie,Fisch,Fisch,Fisch,1320.0,1.32,1,134,594.0,798.0,0.16887832574107078,0.6963647138047135,0.3886099311857558,0.25,0.3800878159497047,-0.06212157856216344,-0.12137670396361751,-0.05925512540145407
381,21,2,Typical,0,Chamaeleon,Reptil,Insekt,Reptil,Reptil,1592.0,1.592,-1,161,737.0,841.0,0.21417564583499613,0.7133794922290375,0.45966732640865576,0.35,0.44685902048702897,-0.0893166669454969,-0.17286009793038884,-0.08354343098489193
382,21,3,Typical,0,Hai,Fisch,Saeugetier,Fisch,Fisch,1944.0,1.944,-1,196,597.0,893.0,0.3947298584425394,1.7140507872696815,0.7365913597088241,1.2,0.5761428379637692,-0.3986863923560262,-0.6674641022590087,-0.26877770990298244
383,21,4,Atypical,1,Seeloewe,Saeugetier,Fisch,Saeugetier,Saeugetier,2416.0,2.416,-1,243,567.0,849.0,-0.0024999827091330452,0.3742402373982363,0.24575846674013982,0.0,0.24575846674013982,0.0,0.0,0.0
384,21,5,Typical,0,Katze,Reptil,Saeugetier,Saeugetier,Saeugetier,2616.0,2.616,1,263,558.0,846.0,0.33037458711082995,1.2315357106007168,0.6052092590875114,0.55,0.5771154660904635,-0.14860744469006473,-0.2805845682698002,-0.13197712357973548
385,21,6,Atypical,1,Fledermaus,Vogel,Saeugetier,Saeugetier,Saeugetier,1816.0,1.816,1,183,540.0,844.0,0.2697716775599128,0.7592952869925934,0.48091604936058646,0.5,0.4574197022807676,-0.13311286845349898,-0.25307847472559275,-0.11996560627209377
386,21,7,Typical,0,Hund,Insekt,Saeugetier,Saeugetier,Saeugetier,1280.0,1.28,1,130,784.0,867.0,0.11028711484593835,0.5385675227428569,0.3330723961226915,0.2,0.32707488651083577,-0.04906328648132368,-0.09625719147880524,-0.04719390499748156
387,21,8,Atypical,1,Aal,Reptil,Fisch,Fisch,Fisch,3520.0,3.52,1,354,696.0,824.0,0.5217196303808879,1.7301682711540234,0.8488740452239195,1.7,0.6255049840816965,-0.6510643055038201,-0.9928470289676826,-0.3417827234638625
388,21,9,Typical,0,Spatz,Vogel,Saeugetier,Vogel,Vogel,4016.0,4.016,-1,403,540.0,847.0,0.7986316630355847,2.2044408073481474,1.197708050756293,2.0,0.9822409511608996,-0.8207793177760799,-1.1960460819200767,-0.37526676414399673
389,21,10,Typical,0,Alligator,Saeugetier,Reptil,Reptil,Reptil,1696.0,1.696,1,171,761.0,915.0,0.2456912730926799,0.7832345817986852,0.5123104006191173,0.45,0.4970977427884377,-0.11807367971552495,-0.22595127751594768,-0.10787759780042273
390,21,11,Atypical,1,Wal,Fisch,Saeugetier,Saeugetier,Saeugetier,1591.0,1.591,1,161,745.0,761.0,0.4959369390709303,1.4823448227221476,0.7575265475384321,1.3,0.5997169134266648,-0.4454618622396509,-0.7309665403174328,-0.2855046780777819
391,21,12,Typical,0,Lachs,Saeugetier,Fisch,Fisch,Fisch,2409.0,2.409,1,242,666.0,865.0,-0.088272036742625,0.2360384467411412,0.29512256792954206,0.0,0.29512256792954206,0.0,0.0,0.0
392,21,13,Typical,0,Loewe,Saeugetier,Fisch,Saeugetier,Saeugetier,1832.0,1.832,-1,185,559.0,900.0,0.43588354554702025,2.2962402146690515,0.7980473251150554,0.95,0.7243996840076581,-0.291243339592168,-0.5128773459736399,-0.22163400638147185
393,21,14,Typical,0,Falke,Vogel,Reptil,Vogel,Vogel,3583.0,3.583,-1,360,602.0,795.0,0.20325086313595206,1.8177655563481716,0.8128760445524756,0.55,0.7919812446413442,-0.14860744469006473,-0.2805845682698002,-0.13197712357973548
394,21,15,Typical,0,Kaninchen,Saeugetier,Reptil,Saeugetier,Saeugetier,1689.0,1.689,-1,170,631.0,895.0,0.20606506945091824,0.7153247709109343,0.5002631513944757,0.3,0.49135359333155887,-0.0755292673810717,-0.1469108260209128,-0.0713815586398411
395,21,16,Atypical,1,Schmetterling,Insekt,Vogel,Insekt,Insekt,1576.0,1.576,-1,159,638.0,866.0,0.531740856844305,1.7509408254394976,0.864340893478594,1.5,0.6717205470017361,-0.5448638768188296,-0.8604512930902888,-0.31558741627145914
397,21,18,Atypical,1,Pinguin,Fisch,Vogel,Vogel,Vogel,3224.0,3.224,1,324,888.0,908.0,0.18722292881116412,1.5092205871279267,0.7182447993856915,0.6,0.6849029291496749,-0.16457458950838247,-0.30845571585668585,-0.14388112634830338
398,21,19,Typical,0,Pferd,Vogel,Saeugetier,Saeugetier,Saeugetier,1127.0,1.127,1,114,666.0,962.0,0.23683925101572156,0.7131399298306308,0.4588479469933007,0.4,0.44262934730774645,-0.10349599838173126,-0.1992018401254721,-0.09570584174374083
399,22,1,Typical,0,Pferd,Vogel,Saeugetier,Saeugetier,Saeugetier,1192.0,1.192,1,121,726.0,928.0,0.24583006535947707,0.6718481421752068,0.4481891443084449,0.35,0.4334452350450732,-0.0893166669454969,-0.17286009793038884,-0.08354343098489193
400,22,2,Typical,0,Alligator,Reptil,Saeugetier,Reptil,Reptil,1392.0,1.392,-1,141,607.0,881.0,0.24785463707723618,0.7140051805838552,0.43991004518687865,0.45,0.41734102609187324,-0.11807367971552495,-0.22595127751594768,-0.10787759780042273
401,22,3,Typical,0,Hund,Saeugetier,Insekt,Saeugetier,Saeugetier,960.0,0.96,-1,98,565.0,827.0,0.24156238070449418,0.7389080041345142,0.47583334447283804,0.4,0.460479264861833,-0.10349599838173126,-0.1992018401254721,-0.09570584174374083
403,22,5,Atypical,1,Aal,Fisch,Reptil,Fisch,Fisch,1264.0,1.264,-1,128,638.0,902.0,0.30563968283238063,0.8560198907987464,0.5701860934730608,0.5,0.5492841181410617,-0.13311286845349898,-0.25307847472559275,-0.11996560627209377
404,22,6,Atypical,1,Pinguin,Vogel,Fisch,Vogel,Vogel,2000.0,2.0,-1,201,656.0,841.0,0.15731109516977523,0.7237185365853654,0.36780942165714936,0.35,0.35220677435777487,-0.0893166669454969,-0.17286009793038884,-0.08354343098489193
405,22,7,Typical,0,Chamaeleon,Reptil,Insekt,Reptil,Reptil,2104.0,2.104,-1,212,655.0,878.0,-0.14427013920071846,0.16394856432366406,0.38172686836460307,0.0,0.38172686836460307,0.0,0.0,0.0
406,22,8,Typical,0,Klapperschlange,Reptil,Amphibie,Reptil,Reptil,1296.0,1.296,-1,131,517.0,758.0,0.2888187507111161,0.7742923459094784,0.5588138785057941,0.45,0.5430978279029182,-0.11807367971552495,-0.22595127751594768,-0.10787759780042273
407,22,9,Atypical,1,Schmetterling,Vogel,Insekt,Insekt,Insekt,1808.0,1.808,1,182,621.0,855.0,0.28647494553376907,0.8683435647381641,0.5456242348242979,0.5,0.525135308185988,-0.13311286845349898,-0.25307847472559275,-0.11996560627209377
408,22,10,Typical,0,Hai,Fisch,Saeugetier,Fisch,Fisch,1720.0,1.72,-1,173,610.0,814.0,-0.06785792349726778,0.09207084653114753,0.19358941837754917,0.0,0.19358941837754917,0.0,0.0,0.0
409,22,11,Typical,0,Loewe,Fisch,Saeugetier,Saeugetier,Saeugetier,1256.0,1.256,1,127,590.0,888.0,0.5354592223330009,1.8826827118644065,0.8090011486883729,1.3,0.6677577205610401,-0.4454618622396509,-0.7309665403174328,-0.2855046780777819
410,22,12,Typical,0,Falke,Vogel,Reptil,Vogel,Vogel,1368.0,1.368,-1,138,641.0,878.0,0.3081111009146248,0.9294847845042127,0.5255404829899898,0.55,0.49454085835194056,-0.14860744469006473,-0.2805845682698002,-0.13197712357973548
411,22,13,Atypical,1,Seeloewe,Saeugetier,Fisch,Saeugetier,Saeugetier,4287.0,4.287,-1,430,636.0,820.0,-0.008524910593168084,1.0161951033157233,0.4399177644540685,0.4,0.42473669980462464,-0.10349599838173126,-0.1992018401254721,-0.09570584174374083
413,22,15,Typical,0,Spatz,Saeugetier,Vogel,Vogel,Vogel,1479.0,1.479,1,149,700.0,885.0,0.23604151260504197,0.988650883657142,0.4986140786674511,0.5,0.47291653611599227,-0.13311286845349898,-0.25307847472559275,-0.11996560627209377
414,22,16,Typical,0,Goldfisch,Fisch,Amphibie,Fisch,Fisch,1840.0,1.84,-1,185,687.0,861.0,0.20616719467990977,0.653443882256769,0.37410913303055676,0.4,0.35318680898935495,-0.10349599838173126,-0.1992018401254721,-0.09570584174374083
415,22,17,Typical,0,Kaninchen,Reptil,Saeugetier,Saeugetier,Saeugetier,1417.0,1.417,1,143,621.0,846.0,0.22270398787534332,0.7381693929739123,0.5060170462463894,0.3,0.49691048917567526,-0.0755292673810717,-0.1469108260209128,-0.0713815586398411
416,22,18,Typical,0,Lachs,Fisch,Saeugetier,Fisch,Fisch,912.0,0.912,-1,93,587.0,862.0,0.29096769883421847,0.8516128265594554,0.5783722168319069,0.45,0.5605942651920166,-0.11807367971552495,-0.22595127751594768,-0.10787759780042273
417,22,19,Typical,0,Katze,Saeugetier,Reptil,Saeugetier,Saeugetier,1007.0,1.007,-1,102,704.0,940.0,0.3338869206773618,0.8575158710545462,0.5849149008446834,0.5,0.5617324900917305,-0.13311286845349898,-0.25307847472559275,-0.11996560627209377
418,23,1,Atypical,1,Wal,Fisch,Saeugetier,Saeugetier,Saeugetier,2137.0,2.137,1,215,659.0,806.0,0.4578887202832574,1.378649893778452,0.7014238168304932,1.3,0.5157700907059173,-0.4454618622396509,-0.7309665403174328,-0.2855046780777819
419,23,2,Typical,0,Lachs,Fisch,Saeugetier,Fisch,Fisch,1776.0,1.776,-1,179,594.0,757.0,-0.002300389516075782,0.31723797979797985,0.19803379651855524,0.0,0.19803379651855524,0.0,0.0,0.0
420,23,3,Typical,0,Loewe,Fisch,Saeugetier,Saeugetier,Saeugetier,1584.0,1.584,1,160,588.0,928.0,0.27220141389889285,1.076349835668027,0.44928297271426176,0.85,0.3393767961972273,-0.2522504086137768,-0.4529166841723562,-0.2006662755585794
421,23,4,Atypical,1,Schmetterling,Insekt,Vogel,Insekt,Insekt,1696.0,1.696,-1,171,563.0,852.0,0.2899716504719116,0.9174143461627002,0.5461821336442504,0.5,0.5248963600334967,-0.13311286845349898,-0.25307847472559275,-0.11996560627209377
422,23,5,Atypical,1,Aal,Fisch,Reptil,Fisch,Fisch,1200.0,1.2,-1,122,634.0,891.0,0.24263623430444728,0.665209842271293,0.46162880242831417,0.45,0.44452615889059355,-0.11807367971552495,-0.22595127751594768,-0.10787759780042273
423,23,6,Typical,0,Goldfisch,Amphibie,Fisch,Fisch,Fisch,1535.0,1.535,1,155,790.0,794.0,0.2636068503350707,1.2296486075949364,0.5022842156547616,0.7,0.4448268746797168,-0.19802835608933766,-0.36525244431605347,-0.1672240882267158
424,23,7,Atypical,1,Fledermaus,Vogel,Saeugetier,Saeugetier,Saeugetier,1856.0,1.856,1,187,578.0,926.0,0.5226549969468754,1.7208093809384075,0.8350908023594481,1.5,0.6548839356954683,-0.5448638768188296,-0.8604512930902888,-0.31558741627145914
425,23,8,Typical,0,Klapperschlange,Amphibie,Reptil,Reptil,Reptil,2024.0,2.024,1,204,550.0,774.0,0.2397005347593583,0.8294737407999994,0.523342714114506,0.35,0.51306704497478,-0.0893166669454969,-0.17286009793038884,-0.08354343098489193
426,23,9,Typical,0,Kaninchen,Saeugetier,Reptil,Saeugetier,Saeugetier,1640.0,1.64,-1,165,560.0,819.0,0.13563235294117645,0.43017430491428577,0.2688871029336327,0.3,0.25544246437914425,-0.0755292673810717,-0.1469108260209128,-0.0713815586398411
427,23,10,Typical,0,Katze,Reptil,Saeugetier,Saeugetier,Saeugetier,1648.0,1.648,1,166,593.0,839.0,0.3359895513011275,1.263564182124789,0.588306913474072,0.65,0.5450197984786591,-0.18104253713442486,-0.33667875115684626,-0.1556362140224214
428,23,11,Typical,0,Alligator,Reptil,Saeugetier,Reptil,Reptil,1301.0,1.301,-1,132,644.0,843.0,0.17765540129095114,0.5536557696795033,0.3454177710544137,0.35,0.32863840517990234,-0.0893166669454969,-0.17286009793038884,-0.08354343098489193
429,23,12,Typical,0,Chamaeleon,Reptil,Insekt,Reptil,Reptil,1439.0,1.439,-1,145,484.0,764.0,0.201071787392643,0.7279732231404955,0.39726265247752557,0.45,0.37850573182363123,-0.11807367971552495,-0.22595127751594768,-0.10787759780042273
430,23,13,Typical,0,Hai,Fisch,Saeugetier,Fisch,Fisch,2440.0,2.44,-1,246,581.0,843.0,0.23609395565455096,0.6568855765920822,0.3458524401140412,0.55,0.29961784016373094,-0.14860744469006473,-0.2805845682698002,-0.13197712357973548
431,23,14,Typical,0,Hund,Saeugetier,Insekt,Saeugetier,Saeugetier,1720.0,1.72,-1,173,730.0,888.0,0.2502712865968305,0.7437107894356164,0.5082457696454279,0.4,0.49408792808347496,-0.10349599838173126,-0.1992018401254721,-0.09570584174374083
432,23,15,Typical,0,Pferd,Vogel,Saeugetier,Saeugetier,Saeugetier,1344.0,1.344,1,136,619.0,819.0,0.27055465805061923,0.8766450019463652,0.46439786149418083,0.55,0.4256905004597757,-0.14860744469006473,-0.2805845682698002,-0.13197712357973548
433,23,16,Atypical,1,Pinguin,Vogel,Fisch,Vogel,Vogel,1320.0,1.32,-1,134,511.0,799.0,0.17236406891523728,0.4809433851491193,0.28990300479864584,0.35,0.2666910504325437,-0.0893166669454969,-0.17286009793038884,-0.08354343098489193
434,23,17,Atypical,1,Seeloewe,Saeugetier,Fisch,Saeugetier,Saeugetier,1968.0,1.968,-1,198,539.0,852.0,0.27674124195132593,0.9475321420942491,0.44520784239719485,0.55,0.41009107510690873,-0.14860744469006473,-0.2805845682698002,-0.13197712357973548
435,23,18,Typical,0,Spatz,Saeugetier,Vogel,Vogel,Vogel,1703.0,1.703,1,172,610.0,825.0,0.29462687238829954,1.0901125304655745,0.4779744953189479,0.65,0.4276763588937441,-0.18104253713442486,-0.33667875115684626,-0.1556362140224214
436,23,19,Typical,0,Falke,Reptil,Vogel,Vogel,Vogel,1448.0,1.448,1,146,726.0,888.0,0.25835402149840647,1.2357142646479349,0.4899832617363816,0.7,0.43436503894184714,-0.19802835608933766,-0.36525244431605347,-0.1672240882267158
437,24,1,Typical,0,Kaninchen,Reptil,Saeugetier,Saeugetier,Saeugetier,2503.0,2.503,1,252,606.0,841.0,0.09679214392027433,0.4897689768976897,0.2623886056054595,0.2,0.25628100922645525,-0.04906328648132368,-0.09625719147880524,-0.04719390499748156
438,24,2,Atypical,1,Aal,Reptil,Fisch,Fisch,Fisch,2256.0,2.256,1,227,564.0,845.0,0.008674176053400068,0.38080874730212755,0.2288066039017064,0.1,0.22794942981762115,-0.023931874853317565,-0.04727665738328592,-0.023344782529968352
439,24,3,Typical,0,Hai,Fisch,Saeugetier,Fisch,Fisch,3064.0,3.064,-1,308,660.0,898.0,-0.16844016636957815,0.07987620344242424,0.41307469952943,0.0,0.41307469952943,0.0,0.0,0.0
440,24,4,Typical,0,Klapperschlange,Reptil,Amphibie,Reptil,Reptil,4960.0,4.96,-1,498,576.0,834.0,-0.035919117647058844,0.34452333333333335,0.28114502848595985,0.0,0.28114502848595985,0.0,0.0,0.0
441,24,5,Typical,0,Chamaeleon,Insekt,Reptil,Reptil,Reptil,2416.0,2.416,1,243,604.0,877.0,0.09233735878457341,0.4703606814516557,0.2659108811574496,0.2,0.25893022404944693,-0.04906328648132368,-0.09625719147880524,-0.04719390499748156
442,24,6,Atypical,1,Schmetterling,Insekt,Vogel,Insekt,Insekt,1960.0,1.96,-1,198,528.0,875.0,0.2729500891265597,0.8259824789333333,0.5073001905801153,0.5,0.4840020739010665,-0.13311286845349898,-0.25307847472559275,-0.11996560627209377
443,24,7,Atypical,1,Fledermaus,Vogel,Saeugetier,Saeugetier,Saeugetier,3392.0,3.392,1,341,666.0,834.0,0.07325372431254784,0.4171116708516517,0.22773394542790243,0.1,0.22521091083558042,-0.023931874853317565,-0.04727665738328592,-0.023344782529968352
444,24,8,Typical,0,Falke,Reptil,Vogel,Vogel,Vogel,2311.0,2.311,1,233,641.0,931.0,0.22208204092869593,0.6028528359638059,0.4406050897066936,0.35,0.4292090278252032,-0.0893166669454969,-0.17286009793038884,-0.08354343098489193
445,24,9,Atypical,1,Seeloewe,Saeugetier,Fisch,Saeugetier,Saeugetier,8688.0,8.688,-1,870,582.0,839.0,0.3518903038878781,0.9851418556701033,0.5390582568889681,1.2,0.3042743458973189,-0.3986863923560262,-0.6674641022590087,-0.26877770990298244
446,24,10,Typical,0,Alligator,Saeugetier,Reptil,Reptil,Reptil,2791.0,2.791,1,281,712.0,858.0,0.02043010575016521,0.37414672237303365,0.20175833569149415,0.15,0.1970488219195481,-0.036339217857283786,-0.07155591092799143,-0.03521669307070765
447,24,11,Typical,0,Spatz,Saeugetier,Vogel,Vogel,Vogel,1624.0,1.624,1,164,694.0,846.0,0.08135186754817199,0.4791993463884727,0.28825226366522366,0.15,0.2857261015669681,-0.036339217857283786,-0.07155591092799143,-0.03521669307070765
448,24,12,Typical,0,Loewe,Saeugetier,Fisch,Saeugetier,Saeugetier,1144.0,1.144,-1,116,560.0,850.0,0.20191204481792713,0.7185521563428573,0.4335731596142371,0.35,0.41965739139378083,-0.0893166669454969,-0.17286009793038884,-0.08354343098489193
449,24,13,Typical,0,Hund,Saeugetier,Insekt,Saeugetier,Saeugetier,1991.0,1.991,-1,201,592.0,886.0,0.1759183889772125,0.6252964864864863,0.350824598875477,0.35,0.3327745683301368,-0.0893166669454969,-0.17286009793038884,-0.08354343098489193
450,24,14,Typical,0,Lachs,Fisch,Saeugetier,Fisch,Fisch,3272.0,3.272,-1,329,614.0,866.0,0.17988759021523917,0.43856962651726383,0.2568228715897936,0.45,0.21982220702664634,-0.11807367971552495,-0.22595127751594768,-0.10787759780042273
451,24,15,Atypical,1,Pinguin,Fisch,Vogel,Vogel,Vogel,6272.0,6.272,1,629,599.0,857.0,0.14635071524436144,1.0381081314510854,0.34234259374791826,0.45,0.31373766043771695,-0.11807367971552495,-0.22595127751594768,-0.10787759780042273
452,24,16,Atypical,1,Wal,Saeugetier,Fisch,Saeugetier,Saeugetier,5784.0,5.784,-1,580,574.0,853.0,0.5914143608662976,1.1723205337644589,0.7521389081040482,1.65,0.4858585492715315,-0.6239433191380308,-0.9594981203111543,-0.33555480117312353
453,24,17,Typical,0,Goldfisch,Fisch,Amphibie,Fisch,Fisch,2895.0,2.895,-1,291,586.0,951.0,0.27143980459077827,1.6643256894907847,0.5808241756915467,0.85,0.49050844433095986,-0.2522504086137768,-0.4529166841723562,-0.2006662755585794
454,24,18,Typical,0,Katze,Saeugetier,Reptil,Saeugetier,Saeugetier,1136.0,1.136,-1,115,644.0,851.0,0.18218730970649125,0.6328084472049685,0.385620531517284,0.35,0.3728344587916493,-0.0893166669454969,-0.17286009793038884,-0.08354343098489193
455,24,19,Typical,0,Pferd,Saeugetier,Vogel,Saeugetier,Saeugetier,1472.0,1.472,-1,149,597.0,861.0,0.10836207179689292,0.3286493688495812,0.20041838403934714,0.25,0.18554532793111628,-0.06212157856216344,-0.12137670396361751,-0.05925512540145407
456,25,1,Atypical,1,Wal,Fisch,Saeugetier,Saeugetier,Saeugetier,2184.0,2.184,1,220,804.0,813.0,0.4576665691152082,1.4600543283582086,0.7488966364173143,1.5,0.5086886670188404,-0.5448638768188296,-0.8604512930902888,-0.31558741627145914
457,25,2,Typical,0,Hund,Insekt,Saeugetier,Saeugetier,Saeugetier,1632.0,1.632,1,165,691.0,795.0,0.18214046139439855,0.8552372793053542,0.42296659233986655,0.4,0.40431977377655326,-0.10349599838173126,-0.1992018401254721,-0.09570584174374083
